,response,points,points_after,energy,energy_after,reward,energy_cost,trial,segment,segment_after,transition,reaction_time,timeout,energy_out,stimulus_onset,response_onset,selection_onset,feedback_onset,iti_onset,vpn,dv_planning_old,dv_planning,dv_myopic_planning,dv_simple,dv_OCR,dv_AVGRR,conflict_planning_old,conflict_planning,conflict_myopic_planning,is_full_energy,is_low_energy_LC,is_low_energy_HC,is_basic_1,is_basic_2,is_basic_3,is_basic_4,is_basic,is_1,is_2,is_3,is_4,is_23,is_14,index
0,0,0,1,3,2,1,1,0,0,1,2,2.6119,0,0,832.82,833.35,835.98,837.0,838.03,101,-1.376953125,-1.21881103515625,-2.010416666666668,-1.5,-0.6666666666666667,-0.6666666666666667,-1.376953125,-1.21881103515625,-2.010416666666668,0,0,0,1,0,0,0,1,1,0,0,0,0,1,0
1,0,1,3,2,1,2,1,1,0,1,2,2.3143,0,0,839.06,839.58,841.91,842.93,843.96,101,-0.5735677083333321,-0.47802734375,-1.3750000000000009,-0.5,0.33333333333333326,0.40909090909090895,-0.5735677083333321,-0.47802734375,-1.3750000000000009,0,0,0,0,1,0,0,1,0,1,0,0,1,0,1
2,1,3,3,1,2,4,1,2,0,1,2,1.5257,0,0,844.98,845.5,847.05,848.06,849.1,101,1.1888020833333321,1.112060546875,0.5,1.5,2.333333333333333,2.5,-1.1888020833333321,-1.112060546875,-0.5,0,0,0,0,0,0,1,1,0,0,0,1,0,1,2
3,0,3,7,2,1,4,1,3,0,1,2,1.1284,0,0,850.11,850.63,851.78,852.8,853.83,101,1.877604166666666,1.72412109375,0.666666666666667,1.5,2.333333333333333,2.611111111111111,-1.877604166666666,-1.72412109375,-0.666666666666667,0,0,0,0,0,0,1,1,0,0,0,1,0,1,3
4,1,7,7,1,2,1,2,0,1,1,3,1.7696,0,0,854.86,855.4,857.2,858.23,859.26,101,-3.071858723958332,-2.2638778686523438,-3.333333333333334,-1.5,-1.1666666666666667,-0.75,-3.071858723958332,-2.2638778686523438,-3.333333333333334,0,0,1,0,0,0,0,0,1,0,0,0,0,1,4
5,1,7,7,2,3,1,2,1,1,1,3,1.2888,0,0,860.3,860.81,862.11,863.13,864.15,101,-2.4404296875,-2.371856689453125,-4.0,-1.5,-1.1666666666666667,-0.75,-2.4404296875,-2.371856689453125,-4.0,0,0,0,1,0,0,0,1,1,0,0,0,0,1,5
6,1,7,7,3,4,2,2,2,1,1,3,3.4223,0,0,865.16,865.68,869.11,870.13,871.15,101,-1.25390625,-1.1624755859375,-3.0,-0.5,-0.6666666666666667,-0.25,-1.25390625,-1.1624755859375,-3.0,0,0,0,0,1,0,0,1,0,1,0,0,1,0,6
7,0,7,10,4,2,3,2,3,1,1,3,3.1504,0,0,872.16,872.68,875.85,876.86,877.88,101,-0.0052083333333339255,0.175048828125,-2.0,0.5,-0.16666666666666674,0.25,-0.0052083333333339255,-0.175048828125,-2.0,0,0,0,0,0,1,0,1,0,0,1,0,1,0,7
8,1,10,10,2,3,1,2,0,1,0,1,0.75352,0,0,878.9,879.41,880.18,881.2,882.21,101,-2.8604736328125,-2.517425537109375,-4.0,-1.5,-1.1666666666666667,-1.1666666666666667,-2.8604736328125,-2.517425537109375,-4.0,0,0,0,1,0,0,0,1,1,0,0,0,0,1,8
9,0,10,14,3,1,4,2,1,1,0,1,0.93199,0,0,883.23,883.75,884.7,885.71,886.73,101,0.18603515625,0.6434326171875,-1.0,1.5,0.33333333333333326,0.25,-0.18603515625,-0.6434326171875,-1.0,0,0,0,0,0,0,1,1,0,0,0,1,0,1,9
10,1,14,14,1,2,2,2,2,1,0,1,0.88694,0,0,887.75,888.26,889.16,890.18,891.2,101,-3.140625,-2.5302734375,-3.333333333333333,-0.5,-0.6666666666666667,-0.875,-3.140625,-2.5302734375,-3.333333333333333,0,0,1,0,0,0,0,0,0,1,0,0,1,0,10
11,1,14,14,2,3,1,2,3,1,0,1,4.0203,0,0,892.21,892.73,896.76,897.78,898.8,101,-3.955729166666668,-3.103515625,-4.0,-1.5,-1.1666666666666667,-1.5833333333333335,-3.955729166666668,-3.103515625,-4.0,0,0,0,1,0,0,0,1,1,0,0,0,0,1,11
12,1,14,14,3,4,4,1,0,0,1,2,9.3161,0,0,899.81,900.33,909.66,910.68,911.7,101,1.623046875,1.78118896484375,0.9895833333333321,1.5,2.333333333333333,2.333333333333333,-1.623046875,-1.78118896484375,-0.9895833333333321,0,0,0,0,0,0,1,1,0,0,0,1,0,1,12
13,1,14,14,4,5,1,1,1,0,1,2,12.264000000000001,0,0,912.71,913.23,925.51,926.53,927.55,101,-1.1803385416666679,-0.919189453125,-1.8333333333333321,-1.5,-0.6666666666666667,-0.590909090909091,-1.1803385416666679,-0.919189453125,-1.8333333333333321,0,0,0,1,0,0,0,1,1,0,0,0,0,1,13
14,1,14,14,5,6,1,1,2,0,1,2,4.0623,0,0,928.56,929.08,933.16,934.18,935.2,101,-1.024739583333334,-0.54052734375,-1.5000000000000018,-1.5,-0.6666666666666667,-0.5,-1.024739583333334,-0.54052734375,-1.5000000000000018,0,0,0,1,0,0,0,1,1,0,0,0,0,1,14
15,1,14,14,6,6,2,1,3,0,1,2,0.9161299999999999,0,0,936.21,936.73,937.66,938.68,939.7,101,1.807291666666666,1.33544921875,0.3333333333333339,-0.5,0.33333333333333326,0.6111111111111112,-1.807291666666666,-1.33544921875,-0.3333333333333339,1,0,0,0,0,0,0,0,0,1,0,0,1,0,15
16,0,14,18,6,4,4,2,0,1,1,3,1.2962,0,0,940.71,941.23,942.55,943.56,944.58,101,2.5855712890625036,2.509246826171875,1.875,1.5,0.33333333333333326,0.75,-2.5855712890625036,-2.509246826171875,-1.875,1,0,0,0,0,0,0,0,0,0,0,1,0,1,16
17,1,18,18,4,5,1,2,1,1,1,3,0.89292,0,0,945.6,946.11,947.03,948.05,949.06,101,-1.857096354166666,-1.800628662109375,-2.625000000000001,-1.5,-1.1666666666666667,-0.75,-1.857096354166666,-1.800628662109375,-2.625000000000001,0,0,0,1,0,0,0,1,1,0,0,0,0,1,17
18,0,18,21,5,3,3,2,2,1,1,3,1.6975,0,0,950.08,950.6,952.31,953.33,954.35,101,0.5338541666666661,0.584716796875,-0.5,0.5,-0.16666666666666674,0.25,-0.5338541666666661,-0.584716796875,-0.5,0,0,0,0,0,1,0,1,0,0,1,0,1,0,18
19,0,21,25,3,1,4,2,3,1,1,3,7.8701,0,0,955.36,955.88,963.76,964.78,965.8,101,0.6718749999999982,0.83740234375,-1.0,1.5,0.33333333333333326,0.75,-0.6718749999999982,-0.83740234375,-1.0,0,0,0,0,0,0,1,1,0,0,0,1,0,1,19
20,1,25,25,1,2,3,2,0,1,0,1,2.3881,0,0,966.81,967.33,969.73,970.75,971.76,101,-2.606770833333334,-2.4914169311523438,-3.333333333333334,0.5,-0.16666666666666674,-0.16666666666666674,-2.606770833333334,-2.4914169311523438,-3.333333333333334,0,0,1,0,0,0,0,0,0,0,1,0,1,0,20
21,0,25,28,2,0,3,2,1,1,0,1,1.4054,0,0,972.78,973.3,974.71,975.73,976.75,101,-1.0312500000000018,-0.508087158203125,-2.0,0.5,-0.16666666666666674,-0.25,-1.0312500000000018,-0.508087158203125,-2.0,0,0,0,0,0,1,0,1,0,0,1,0,1,0,21
22,1,28,28,0,1,2,2,2,1,0,1,1.3901,0,0,977.76,978.28,979.68,980.7,981.71,101,-1.7161458333333321,-1.390625,-1.6666666666666667,-0.5,-0.6666666666666667,-0.875,-1.7161458333333321,-1.390625,-1.6666666666666667,0,0,1,0,0,0,0,0,0,1,0,0,1,0,22
23,1,28,28,1,2,1,2,3,1,0,1,1.2955,0,0,982.73,983.25,984.56,985.58,986.6,101,-3.53125,-2.9638671875,-3.3333333333333335,-1.5,-1.1666666666666667,-1.5833333333333335,-3.53125,-2.9638671875,-3.3333333333333335,0,0,1,0,0,0,0,0,1,0,0,0,0,1,23
24,0,28,31,2,1,3,1,0,0,0,0,1.1561,0,0,987.61,988.13,989.3,990.31,991.33,101,0.01416015625,0.3355712890625,-0.375,0.5,1.3333333333333333,0.5,-0.01416015625,-0.3355712890625,-0.375,0,0,0,0,0,1,0,1,0,0,1,0,1,0,24
25,0,31,35,1,0,4,1,1,0,0,0,1.1989,0,0,992.35,992.86,994.08,995.1,996.11,101,0.662109375,0.95806884765625,0.5,1.5,2.333333333333333,1.5,-0.662109375,-0.95806884765625,-0.5,0,0,0,0,0,0,1,1,0,0,0,1,0,1,25
26,1,35,35,0,1,4,1,2,0,0,0,0.9436700000000001,0,0,997.13,997.65,998.61,999.63,1000.6,101,-1.8333333333333321,-1.65869140625,-1.8333333333333333,1.5,2.333333333333333,1.5,-1.8333333333333321,-1.65869140625,-1.8333333333333333,0,1,0,0,0,0,0,0,0,0,0,1,0,1,26
27,0,35,39,1,0,4,1,3,0,0,0,1.4822,0,0,1001.7,1002.2,1003.7,1004.7,1005.7,101,0.46875,1.0361328125,0.6666666666666665,1.5,2.333333333333333,1.5,-0.46875,-1.0361328125,-0.6666666666666665,0,0,0,0,0,0,1,1,0,0,0,1,0,1,27
28,1,39,39,0,1,4,1,0,0,0,0,0.9195,0,0,1006.7,1007.2,1008.2,1009.2,1010.2,101,-1.8201497395833321,-1.6787872314453125,-1.833333333333333,1.5,2.333333333333333,1.5,-1.8201497395833321,-1.6787872314453125,-1.833333333333333,0,1,0,0,0,0,0,0,0,0,0,1,0,1,28
29,0,39,42,1,0,3,1,1,0,0,0,1.7075,0,0,1011.2,1011.7,1013.5,1014.5,1015.5,101,-0.337890625,-0.04193115234375,-0.5,0.5,1.3333333333333333,0.5,-0.337890625,-0.04193115234375,-0.5,0,0,0,0,0,1,0,1,0,0,1,0,1,0,29
30,1,42,42,0,1,3,1,2,0,0,0,1.2954,0,0,1016.5,1017.0,1018.4,1019.4,1020.4,101,-1.8333333333333321,-1.65869140625,-1.8333333333333333,0.5,1.3333333333333333,0.5,-1.8333333333333321,-1.65869140625,-1.8333333333333333,0,1,0,0,0,0,0,0,0,0,1,0,1,0,30
31,1,42,42,1,2,3,1,3,0,0,0,0.8923,0,0,1021.4,1021.9,1022.8,1023.9,1024.9,101,-0.53125,0.0361328125,-0.3333333333333335,0.5,1.3333333333333333,0.5,-0.53125,-0.0361328125,-0.3333333333333335,0,0,0,0,0,1,0,1,0,0,1,0,1,0,31
32,1,42,42,2,3,2,1,0,0,0,0,5.465,0,0,1025.9,1026.4,1031.9,1032.9,1033.9,101,-0.98583984375,-0.6644287109375,-1.375,-0.5,0.33333333333333326,-0.5,-0.98583984375,-0.6644287109375,-1.375,0,0,0,0,1,0,0,1,0,1,0,0,1,0,32
33,1,42,42,3,4,1,1,1,0,0,0,7.1028,0,0,1034.9,1035.5,1042.6,1043.6,1044.6,101,-1.802734375,-1.307891845703125,-2.333333333333334,-1.5,-0.6666666666666667,-1.5,-1.802734375,-1.307891845703125,-2.333333333333334,0,0,0,1,0,0,0,1,1,0,0,0,0,1,33
34,0,42,45,4,3,3,1,2,0,0,0,1.8355,0,0,1045.6,1046.1,1048.0,1049.0,1050.0,101,0.453125,0.96807861328125,-0.3333333333333339,0.5,1.3333333333333333,0.5,-0.453125,-0.96807861328125,-0.3333333333333339,0,0,0,0,0,1,0,1,0,0,1,0,1,0,34
35,1,45,45,3,4,2,1,3,0,0,0,1.0509,0,0,1051.0,1051.6,1052.6,1053.6,1054.7,101,-0.96875,-0.203857421875,-1.333333333333333,-0.5,0.33333333333333326,-0.5,-0.96875,-0.203857421875,-1.333333333333333,0,0,0,0,1,0,0,1,0,1,0,0,1,0,35
36,1,45,45,4,5,2,1,0,0,1,2,9.5535,0,0,1055.7,1056.2,1065.8,1066.8,1067.8,101,0.040283203125,0.07277297973632812,-0.7500000000000018,-0.5,0.33333333333333326,0.33333333333333326,-0.040283203125,-0.07277297973632812,-0.7500000000000018,0,0,0,0,1,0,0,1,0,1,0,0,1,0,36
37,0,45,49,5,4,4,1,1,0,1,2,0.77217,0,0,1068.8,1069.3,1070.1,1071.1,1072.1,101,2.474934895833332,2.3491058349609375,1.666666666666666,1.5,2.333333333333333,2.409090909090909,-2.474934895833332,-2.3491058349609375,-1.666666666666666,0,0,0,0,0,0,1,1,0,0,0,1,0,1,37
38,0,49,52,4,3,3,1,2,0,1,2,0.7503,0,0,1073.2,1073.7,1074.4,1075.5,1076.5,101,1.3697916666666643,1.13214111328125,-0.3333333333333339,0.5,1.3333333333333333,1.5,-1.3697916666666643,-1.13214111328125,-0.3333333333333339,0,0,0,0,0,1,0,1,0,0,1,0,1,0,38
39,1,52,52,3,4,1,1,3,0,1,2,1.1209,0,0,1077.5,1078.0,1079.1,1080.2,1081.2,101,-0.6614583333333357,-0.990966796875,-2.333333333333333,-1.5,-0.6666666666666667,-0.38888888888888884,-0.6614583333333357,-0.990966796875,-2.333333333333333,0,0,0,1,0,0,0,1,1,0,0,0,0,1,39
40,1,52,52,4,5,2,2,0,1,1,3,2.4048,0,0,1082.2,1082.7,1085.1,1086.1,1087.2,101,-0.7720540364583357,-0.7949142456054688,-1.1041666666666679,-0.5,-0.6666666666666667,-0.25,-0.7720540364583357,-0.7949142456054688,-1.1041666666666679,0,0,0,0,1,0,0,1,0,1,0,0,1,0,40
41,0,52,55,5,3,3,2,1,1,1,3,0.5975600000000001,0,0,1088.2,1088.7,1089.3,1090.3,1091.3,101,0.6761067708333321,0.596099853515625,0.2916666666666661,0.5,-0.16666666666666674,0.25,-0.6761067708333321,-0.596099853515625,-0.2916666666666661,0,0,0,0,0,1,0,1,0,0,1,0,1,0,41
42,1,55,55,3,4,2,2,2,1,1,3,5.8941,0,0,1092.4,1092.9,1098.8,1099.8,1100.8,101,-1.25390625,-1.1624755859375,-3.0,-0.5,-0.6666666666666667,-0.25,-1.25390625,-1.1624755859375,-3.0,0,0,0,0,1,0,0,1,0,1,0,0,1,0,42
43,0,55,58,4,2,3,2,3,1,1,3,1.8349,0,0,1101.8,1102.4,1104.2,1105.2,1106.2,101,-0.0052083333333339255,0.175048828125,-2.0,0.5,-0.16666666666666674,0.25,-0.0052083333333339255,-0.175048828125,-2.0,0,0,0,0,0,1,0,1,0,0,1,0,1,0,43
44,0,58,62,2,0,4,2,0,1,0,1,8.2824,0,0,1107.3,1107.8,1116.1,1117.1,1118.1,101,0.1395263671875,0.482574462890625,-1.0,1.5,0.33333333333333326,0.33333333333333326,-0.1395263671875,-0.482574462890625,-1.0,0,0,0,0,0,0,1,1,0,0,0,1,0,1,44
45,1,62,62,0,1,1,2,1,1,0,1,9.1274,0,0,1119.1,1119.6,1128.8,1129.8,1130.8,101,-1.4244791666666679,-1.1396484375,-1.6666666666666665,-1.5,-1.1666666666666667,-1.25,-1.4244791666666679,-1.1396484375,-1.6666666666666665,0,0,1,0,0,0,0,0,1,0,0,0,0,1,45
46,1,62,62,1,2,2,2,2,1,0,1,7.2589,0,0,1131.8,1132.4,1139.6,1140.7,1141.7,101,-3.140625,-2.5302734375,-3.333333333333333,-0.5,-0.6666666666666667,-0.875,-3.140625,-2.5302734375,-3.333333333333333,0,0,1,0,0,0,0,0,0,1,0,0,1,0,46
47,1,62,62,2,3,1,2,3,1,0,1,3.2889,0,0,1142.7,1143.2,1146.5,1147.5,1148.5,101,-3.955729166666668,-3.103515625,-4.0,-1.5,-1.1666666666666667,-1.5833333333333335,-3.955729166666668,-3.103515625,-4.0,0,0,0,1,0,0,0,1,1,0,0,0,0,1,47
48,1,62,62,3,4,2,1,0,0,0,0,11.614,0,0,1149.6,1150.1,1161.7,1162.7,1163.7,101,-0.7289225260416643,-0.3501129150390625,-1.0104166666666679,-0.5,0.33333333333333326,-0.5,-0.7289225260416643,-0.3501129150390625,-1.0104166666666679,0,0,0,0,1,0,0,1,0,1,0,0,1,0,48
49,0,62,66,4,3,4,1,1,0,0,0,3.6941,0,0,1164.8,1165.3,1169.0,1170.0,1171.0,101,1.5462239583333357,1.934356689453125,1.1666666666666679,1.5,2.333333333333333,1.5,-1.5462239583333357,-1.934356689453125,-1.1666666666666679,0,0,0,0,0,0,1,1,0,0,0,1,0,1,49
50,1,66,66,3,4,1,1,2,0,0,0,13.443,0,0,1172.0,1172.6,1186.0,1187.0,1188.1,101,-1.8385416666666679,-1.2615966796875,-2.333333333333333,-1.5,-0.6666666666666667,-1.5,-1.8385416666666679,-1.2615966796875,-2.333333333333333,0,0,0,1,0,0,0,1,1,0,0,0,0,1,50
51,0,66,69,4,3,3,1,3,0,0,0,3.2094,0,0,1189.1,1189.6,1192.8,1193.8,1194.9,101,0.3932291666666661,1.01416015625,-0.3333333333333339,0.5,1.3333333333333333,0.5,-0.3932291666666661,-1.01416015625,-0.3333333333333339,0,0,0,0,0,1,0,1,0,0,1,0,1,0,51
52,1,69,69,3,4,2,1,0,0,1,2,1.0577,0,0,1195.9,1196.4,1197.5,1198.5,1199.5,101,-0.376953125,-0.21881103515625,-1.0104166666666679,-0.5,0.33333333333333326,0.33333333333333326,-0.376953125,-0.21881103515625,-1.0104166666666679,0,0,0,0,1,0,0,1,0,1,0,0,1,0,52
53,0,69,72,4,3,3,1,1,0,1,2,5.8881,0,0,1200.5,1201.0,1206.9,1207.9,1209.0,101,0.8196614583333321,1.080810546875,0.16666666666666785,0.5,1.3333333333333333,1.409090909090909,-0.8196614583333321,-1.080810546875,-0.16666666666666785,0,0,0,0,0,1,0,1,0,0,1,0,1,0,53
54,0,72,75,3,2,3,1,2,0,1,2,1.9495,0,0,1210.0,1210.5,1212.5,1213.5,1214.5,101,0.6640625000000018,0.931884765625,-0.33333333333333215,0.5,1.3333333333333333,1.5,-0.6640625000000018,-0.931884765625,-0.33333333333333215,0,0,0,0,0,1,0,1,0,0,1,0,1,0,54
55,0,75,79,2,1,4,1,3,0,1,2,1.3436,0,0,1215.5,1216.0,1217.4,1218.4,1219.4,101,1.877604166666666,1.72412109375,0.666666666666667,1.5,2.333333333333333,2.611111111111111,-1.877604166666666,-1.72412109375,-0.666666666666667,0,0,0,0,0,0,1,1,0,0,0,1,0,1,55
56,1,79,79,1,2,2,2,0,1,0,1,1.2423,0,0,1220.5,1221.0,1222.2,1223.3,1224.3,101,-2.606770833333334,-2.4914169311523438,-3.333333333333334,-0.5,-0.6666666666666667,-0.6666666666666667,-2.606770833333334,-2.4914169311523438,-3.333333333333334,0,0,1,0,0,0,0,0,0,1,0,0,1,0,56
57,1,79,79,2,3,2,2,1,1,0,1,7.6727,0,0,1225.3,1225.8,1233.5,1234.5,1235.5,101,-2.0312500000000018,-1.508087158203125,-3.0,-0.5,-0.6666666666666667,-0.75,-2.0312500000000018,-1.508087158203125,-3.0,0,0,0,0,1,0,0,1,0,1,0,0,1,0,57
58,0,79,83,3,1,4,2,2,1,0,1,1.2868,0,0,1236.5,1237.1,1238.4,1239.4,1240.4,101,-0.031250000000001776,0.6558837890625,-1.0,1.5,0.33333333333333326,0.125,-0.031250000000001776,-0.6558837890625,-1.0,0,0,0,0,0,0,1,1,0,0,0,1,0,1,58
59,0,83,83,1,1,3,2,3,1,0,1,2.2681,0,1,1241.4,1241.9,1244.2,1245.2,1246.8,101,-3.53125,-2.9638671875,-3.3333333333333335,0.5,-0.16666666666666674,-0.5833333333333335,-3.53125,-2.9638671875,-3.3333333333333335,0,0,1,0,0,0,0,0,0,0,1,0,1,0,59
60,1,83,83,1,2,1,1,0,0,0,0,1.7889,0,0,1247.8,1248.3,1250.1,1251.1,1252.1,101,-2.2561035156250036,-2.067291259765625,-2.531250000000001,-1.5,-0.6666666666666667,-1.5,-2.2561035156250036,-2.067291259765625,-2.531250000000001,0,0,0,1,0,0,0,1,1,0,0,0,0,1,60
61,1,83,83,2,3,1,1,1,0,0,0,1.1903,0,0,1253.2,1253.7,1254.9,1255.9,1256.9,101,-2.0081380208333357,-1.63458251953125,-2.375000000000001,-1.5,-0.6666666666666667,-1.5,-2.0081380208333357,-1.63458251953125,-2.375000000000001,0,0,0,1,0,0,0,1,1,0,0,0,0,1,61
62,1,83,83,3,4,1,1,2,0,0,0,1.2555,0,0,1257.9,1258.4,1259.7,1260.7,1261.7,101,-1.8385416666666679,-1.2615966796875,-2.333333333333333,-1.5,-0.6666666666666667,-1.5,-1.8385416666666679,-1.2615966796875,-2.333333333333333,0,0,0,1,0,0,0,1,1,0,0,0,0,1,62
63,1,83,83,4,5,2,1,3,0,0,0,1.3742,0,0,1262.8,1263.3,1264.7,1265.7,1266.7,101,-0.6067708333333339,0.01416015625,-1.333333333333334,-0.5,0.33333333333333326,-0.5,-0.6067708333333339,-0.01416015625,-1.333333333333334,0,0,0,0,1,0,0,1,0,1,0,0,1,0,63
64,0,83,87,5,4,4,1,0,0,1,2,0.56813,0,0,1267.7,1268.2,1268.8,1269.8,1270.8,101,2.159830729166668,2.31060791015625,1.7916666666666679,1.5,2.333333333333333,2.333333333333333,-2.159830729166668,-2.31060791015625,-1.7916666666666679,0,0,0,0,0,0,1,1,0,0,0,1,0,1,64
65,0,87,90,4,3,3,1,1,0,1,2,0.5221600000000001,0,0,1271.9,1272.4,1272.9,1273.9,1274.9,101,0.8196614583333321,1.080810546875,0.16666666666666785,0.5,1.3333333333333333,1.409090909090909,-0.8196614583333321,-1.080810546875,-0.16666666666666785,0,0,0,0,0,1,0,1,0,0,1,0,1,0,65
66,0,90,93,3,2,3,1,2,0,1,2,0.63016,0,0,1276.0,1276.5,1277.1,1278.1,1279.2,101,0.6640625000000018,0.931884765625,-0.33333333333333215,0.5,1.3333333333333333,1.5,-0.6640625000000018,-0.931884765625,-0.33333333333333215,0,0,0,0,0,1,0,1,0,0,1,0,1,0,66
67,1,93,93,2,3,1,1,3,0,1,2,1.0128,0,0,1280.2,1280.7,1281.7,1282.8,1283.8,101,-1.122395833333334,-1.27587890625,-2.333333333333333,-1.5,-0.6666666666666667,-0.38888888888888884,-1.122395833333334,-1.27587890625,-2.333333333333333,0,0,0,1,0,0,0,1,1,0,0,0,0,1,67
68,1,93,93,3,4,1,2,0,1,1,3,1.3169,0,0,1284.8,1285.3,1286.6,1287.7,1288.7,101,-2.178548177083334,-2.1503143310546875,-2.718750000000001,-1.5,-1.1666666666666667,-0.75,-2.178548177083334,-2.1503143310546875,-2.718750000000001,0,0,0,1,0,0,0,1,1,0,0,0,0,1,68
69,0,93,96,4,2,3,2,1,1,1,3,0.76078,0,0,1289.7,1290.2,1291.0,1292.0,1293.0,101,0.14290364583333393,0.199371337890625,-0.625,0.5,-0.16666666666666674,0.25,-0.14290364583333393,-0.199371337890625,-0.625,0,0,0,0,0,1,0,1,0,0,1,0,1,0,69
70,0,96,99,2,0,3,2,2,1,1,3,0.76289,0,0,1294.0,1294.6,1295.3,1296.4,1297.4,101,-0.4960937500000018,-0.3719482421875,-2.0,0.5,-0.16666666666666674,0.25,-0.4960937500000018,-0.3719482421875,-2.0,0,0,0,0,0,1,0,1,0,0,1,0,1,0,70
71,1,99,99,0,1,1,2,3,1,1,3,0.66886,0,0,1298.4,1298.9,1299.6,1300.6,1301.6,101,-1.666666666666667,-1.0810546875,-1.6666666666666667,-1.5,-1.1666666666666667,-0.75,-1.666666666666667,-1.0810546875,-1.6666666666666667,0,0,1,0,0,0,0,0,1,0,0,0,0,1,71
72,0,99,99,1,1,4,2,0,1,0,1,1.051,0,1,1302.6,1303.2,1304.2,1305.3,1306.8,101,-2.606770833333334,-2.4914169311523438,-3.333333333333334,1.5,0.33333333333333326,0.33333333333333326,-2.606770833333334,-2.4914169311523438,-3.333333333333334,0,0,1,0,0,0,0,0,0,0,0,1,0,1,72
73,1,99,99,1,2,1,2,1,1,0,1,0.63686,0,0,1307.8,1308.3,1309.0,1310.0,1311.0,101,-2.96875,-2.3812713623046875,-3.3333333333333335,-1.5,-1.1666666666666667,-1.25,-2.96875,-2.3812713623046875,-3.3333333333333335,0,0,1,0,0,0,0,0,1,0,0,0,0,1,73
74,0,99,103,2,0,4,2,2,1,0,1,1.5642,0,0,1312.0,1312.5,1314.1,1315.1,1316.1,101,-0.6848958333333321,0.30413818359375,-1.0,1.5,0.33333333333333326,0.125,-0.6848958333333321,-0.30413818359375,-1.0,0,0,0,0,0,0,1,1,0,0,0,1,0,1,74
75,1,103,103,0,1,3,2,3,1,0,1,0.86224,0,0,1317.2,1317.7,1318.6,1319.6,1320.6,101,-1.8151041666666679,-1.5732421875,-1.6666666666666667,0.5,-0.16666666666666674,-0.5833333333333335,-1.8151041666666679,-1.5732421875,-1.6666666666666667,0,0,1,0,0,0,0,0,0,0,1,0,1,0,75
76,1,103,103,1,2,4,1,0,0,0,0,0.6922699999999999,0,0,1321.6,1322.1,1322.8,1323.9,1324.9,101,0.7438964843749964,0.932708740234375,0.46875,1.5,2.333333333333333,1.5,-0.7438964843749964,-0.932708740234375,-0.46875,0,0,0,0,0,0,1,1,0,0,0,1,0,1,76
77,1,103,103,2,3,1,1,1,0,0,0,2.3369,0,0,1325.9,1326.4,1328.8,1329.8,1330.8,101,-2.0081380208333357,-1.63458251953125,-2.375000000000001,-1.5,-0.6666666666666667,-1.5,-2.0081380208333357,-1.63458251953125,-2.375000000000001,0,0,0,1,0,0,0,1,1,0,0,0,0,1,77
78,0,103,107,3,2,4,1,2,0,0,0,1.4041,0,0,1331.8,1332.3,1333.7,1334.8,1335.8,101,1.1614583333333321,1.7384033203125,0.6666666666666679,1.5,2.333333333333333,1.5,-1.1614583333333321,-1.7384033203125,-0.6666666666666679,0,0,0,0,0,0,1,1,0,0,0,1,0,1,78
79,1,107,107,2,3,2,1,3,0,0,0,6.2608,0,0,1336.8,1337.3,1343.6,1344.6,1345.6,101,-1.140625,-0.5302734375,-1.333333333333333,-0.5,0.33333333333333326,-0.5,-1.140625,-0.5302734375,-1.333333333333333,0,0,0,0,1,0,0,1,0,1,0,0,1,0,79
80,0,107,111,3,2,4,1,0,0,1,2,0.9468799999999999,0,0,1346.6,1347.2,1348.1,1349.1,1350.2,101,1.623046875,1.78118896484375,0.9895833333333321,1.5,2.333333333333333,2.333333333333333,-1.623046875,-1.78118896484375,-0.9895833333333321,0,0,0,0,0,0,1,1,0,0,0,1,0,1,80
81,1,111,111,2,3,2,1,1,0,1,2,0.8934799999999999,0,0,1351.2,1351.7,1352.6,1353.6,1354.6,101,-0.5735677083333321,-0.47802734375,-1.3750000000000009,-0.5,0.33333333333333326,0.40909090909090895,-0.5735677083333321,-0.47802734375,-1.3750000000000009,0,0,0,0,1,0,0,1,0,1,0,0,1,0,81
82,0,111,114,3,2,3,1,2,0,1,2,7.8983,0,0,1355.7,1356.2,1364.1,1365.1,1366.1,101,0.6640625000000018,0.931884765625,-0.33333333333333215,0.5,1.3333333333333333,1.5,-0.6640625000000018,-0.931884765625,-0.33333333333333215,0,0,0,0,0,1,0,1,0,0,1,0,1,0,82
83,1,114,114,2,3,2,1,3,0,1,2,0.92695,0,0,1367.1,1367.7,1368.6,1369.6,1370.6,101,-0.12239583333333393,-0.27587890625,-1.333333333333333,-0.5,0.33333333333333326,0.6111111111111112,-0.12239583333333393,-0.27587890625,-1.333333333333333,0,0,0,0,1,0,0,1,0,1,0,0,1,0,83
84,0,114,118,3,1,4,2,0,1,1,3,1.2903,0,0,1371.7,1372.2,1373.5,1374.5,1375.5,101,0.8214518229166661,0.8496856689453125,0.28125,1.5,0.33333333333333326,0.75,-0.8214518229166661,-0.8496856689453125,-0.28125,0,0,0,0,0,0,1,1,0,0,0,1,0,1,84
85,1,118,118,1,2,2,2,1,1,1,3,6.2956,0,0,1376.5,1377.0,1383.4,1384.4,1385.4,101,-1.9554036458333357,-2.357330322265625,-3.3333333333333335,-0.5,-0.6666666666666667,-0.25,-1.9554036458333357,-2.357330322265625,-3.3333333333333335,0,0,1,0,0,0,0,0,0,1,0,0,1,0,85
86,1,118,118,2,3,1,2,2,1,1,3,2.3881,0,0,1386.4,1386.9,1389.3,1390.3,1391.4,101,-2.4960937500000018,-2.3719482421875,-4.0,-1.5,-1.1666666666666667,-0.75,-2.4960937500000018,-2.3719482421875,-4.0,0,0,0,1,0,0,0,1,1,0,0,0,0,1,86
87,0,118,122,3,1,4,2,3,1,1,3,0.7976,0,0,1392.4,1392.9,1393.7,1394.7,1395.7,101,0.6718749999999982,0.83740234375,-1.0,1.5,0.33333333333333326,0.75,-0.6718749999999982,-0.83740234375,-1.0,0,0,0,0,0,0,1,1,0,0,0,1,0,1,87
88,1,122,122,1,2,2,2,0,1,1,3,0.8302700000000001,0,0,1396.8,1397.3,1398.1,1399.1,1400.2,101,-3.071858723958332,-2.2638778686523438,-3.333333333333334,-0.5,-0.6666666666666667,-0.25,-3.071858723958332,-2.2638778686523438,-3.333333333333334,0,0,1,0,0,0,0,0,0,1,0,0,1,0,88
89,0,122,125,2,0,3,2,1,1,1,3,0.9895799999999999,0,0,1401.2,1401.7,1402.7,1403.7,1404.7,101,-0.4404296875,-0.371856689453125,-2.0,0.5,-0.16666666666666674,0.25,-0.4404296875,-0.371856689453125,-2.0,0,0,0,0,0,1,0,1,0,0,1,0,1,0,89
90,1,125,125,0,1,2,2,2,1,1,3,2.8869,0,0,1405.7,1406.3,1409.2,1410.2,1411.2,101,-1.666666666666666,-1.171630859375,-1.6666666666666667,-0.5,-0.6666666666666667,-0.25,-1.666666666666666,-1.171630859375,-1.6666666666666667,0,0,1,0,0,0,0,0,0,1,0,0,1,0,90
91,1,125,125,1,2,4,2,3,1,1,3,1.4283,0,0,1412.2,1412.7,1414.2,1415.2,1416.2,101,-3.333333333333333,-2.252685546875,-3.3333333333333335,1.5,0.33333333333333326,0.75,-3.333333333333333,-2.252685546875,-3.3333333333333335,0,0,1,0,0,0,0,0,0,0,0,1,0,1,91
92,1,125,125,2,3,3,2,0,1,0,1,4.6276,0,0,1417.2,1417.7,1422.4,1423.4,1424.4,101,-0.8604736328125,-0.517425537109375,-2.0,0.5,-0.16666666666666674,-0.16666666666666674,-0.8604736328125,-0.517425537109375,-2.0,0,0,0,0,0,1,0,1,0,0,1,0,1,0,92
93,0,125,128,3,1,3,2,1,1,0,1,0.70676,0,0,1425.4,1426.0,1426.7,1427.7,1428.7,101,-0.81396484375,-0.3565673828125,-2.0,0.5,-0.16666666666666674,-0.25,-0.81396484375,-0.3565673828125,-2.0,0,0,0,0,0,1,0,1,0,0,1,0,1,0,93
94,1,128,128,1,2,3,2,2,1,0,1,0.87154,0,0,1429.7,1430.2,1431.1,1432.1,1433.2,101,-3.140625,-2.5302734375,-3.333333333333333,0.5,-0.16666666666666674,-0.375,-3.140625,-2.5302734375,-3.333333333333333,0,0,1,0,0,0,0,0,0,0,1,0,1,0,94
95,0,128,132,2,0,4,2,3,1,0,1,0.68545,0,0,1434.2,1434.7,1435.4,1436.4,1437.4,101,-0.9557291666666679,-0.103515625,-1.0,1.5,0.33333333333333326,-0.08333333333333348,-0.9557291666666679,-0.103515625,-1.0,0,0,0,0,0,0,1,1,0,0,0,1,0,1,95
96,1,132,132,0,1,2,1,0,0,1,2,2.3149,0,0,1438.4,1439.0,1441.3,1442.3,1443.3,101,-1.9274088541666679,-1.7573394775390625,-1.833333333333333,-0.5,0.33333333333333326,0.33333333333333326,-1.9274088541666679,-1.7573394775390625,-1.833333333333333,0,1,0,0,0,0,0,0,0,1,0,0,1,0,96
97,0,132,135,1,0,3,1,1,0,1,2,0.8627600000000001,0,0,1444.3,1444.9,1445.7,1446.8,1447.8,101,0.0006510416666678509,0.187957763671875,-0.5,0.5,1.3333333333333333,1.409090909090909,-0.0006510416666678509,-0.187957763671875,-0.5,0,0,0,0,0,1,0,1,0,0,1,0,1,0,97
98,1,135,135,0,1,3,1,2,0,1,2,1.9969999999999999,0,0,1448.8,1449.3,1451.3,1452.3,1453.4,101,-1.833333333333334,-1.7952880859375,-1.8333333333333333,0.5,1.3333333333333333,1.5,-1.833333333333334,-1.7952880859375,-1.8333333333333333,0,1,0,0,0,0,0,0,0,0,1,0,1,0,98
99,1,135,135,1,2,2,1,3,0,1,2,0.7975800000000001,0,0,1454.4,1454.9,1455.7,1456.7,1457.7,101,-1.3333333333333321,-0.252685546875,-1.3333333333333335,-0.5,0.33333333333333326,0.6111111111111112,-1.3333333333333321,-0.252685546875,-1.3333333333333335,0,0,0,0,1,0,0,1,0,1,0,0,1,0,99
100,0,135,139,2,0,4,2,0,1,1,3,0.90228,0,0,1458.8,1459.3,1460.2,1461.2,1462.2,101,0.5240478515625,0.6443023681640625,-1.0,1.5,0.33333333333333326,0.75,-0.5240478515625,-0.6443023681640625,-1.0,0,0,0,0,0,0,1,1,0,0,0,1,0,1,100
101,1,139,139,0,1,2,2,1,1,1,3,0.8509,0,0,1463.2,1463.8,1464.6,1465.6,1466.7,101,-0.5084635416666679,-1.2650146484375,-1.6666666666666665,-0.5,-0.6666666666666667,-0.25,-0.5084635416666679,-1.2650146484375,-1.6666666666666665,0,0,1,0,0,0,0,0,0,1,0,0,1,0,101
102,1,139,139,1,2,4,2,2,1,1,3,0.78557,0,0,1467.7,1468.2,1469.0,1470.0,1471.0,101,-2.175130208333334,-2.4366455078125,-3.333333333333333,1.5,0.33333333333333326,0.75,-2.175130208333334,-2.4366455078125,-3.333333333333333,0,0,1,0,0,0,0,0,0,0,0,1,0,1,102
103,1,139,139,2,3,1,2,3,1,1,3,2.8188,0,0,1472.0,1472.6,1475.4,1476.4,1477.4,101,-2.789062500000001,-2.35693359375,-4.0,-1.5,-1.1666666666666667,-0.75,-2.789062500000001,-2.35693359375,-4.0,0,0,0,1,0,0,0,1,1,0,0,0,0,1,103
104,1,139,139,3,4,1,2,0,1,0,1,1.8828,0,0,1478.4,1479.0,1480.9,1481.9,1482.9,101,-2.3671875,-2.2316360473632812,-2.718750000000001,-1.5,-1.1666666666666667,-1.1666666666666667,-2.3671875,-2.2316360473632812,-2.718750000000001,0,0,0,1,0,0,0,1,1,0,0,0,0,1,104
105,1,139,139,4,5,2,2,1,1,0,1,8.7043,0,0,1483.9,1484.4,1493.1,1494.2,1495.2,101,-1.15625,-0.9632720947265625,-1.625,-0.5,-0.6666666666666667,-0.75,-1.15625,-0.9632720947265625,-1.625,0,0,0,0,1,0,0,1,0,1,0,0,1,0,105
106,0,139,141,5,3,2,2,2,1,0,1,0.8848,0,0,1496.2,1496.7,1497.6,1498.6,1499.6,101,-0.8125,-0.57861328125,-1.5,-0.5,-0.6666666666666667,-0.875,-0.8125,-0.57861328125,-1.5,0,0,0,0,1,0,0,1,0,1,0,0,1,0,106
107,0,141,145,3,1,4,2,3,1,0,1,0.58619,0,0,1500.7,1501.2,1501.8,1502.8,1503.8,101,-0.6848958333333321,0.405517578125,-1.0,1.5,0.33333333333333326,-0.08333333333333348,-0.6848958333333321,-0.405517578125,-1.0,0,0,0,0,0,0,1,1,0,0,0,1,0,1,107
108,1,145,145,1,2,1,1,0,0,0,0,0.7156,0,0,1504.8,1505.3,1506.1,1507.1,1508.1,101,-2.2561035156250036,-2.067291259765625,-2.531250000000001,-1.5,-0.6666666666666667,-1.5,-2.2561035156250036,-2.067291259765625,-2.531250000000001,0,0,0,1,0,0,0,1,1,0,0,0,0,1,108
109,1,145,145,2,3,2,1,1,0,0,0,10.222999999999999,0,0,1509.1,1509.6,1519.9,1520.9,1521.9,101,-1.0081380208333357,-0.63458251953125,-1.3750000000000009,-0.5,0.33333333333333326,-0.5,-1.0081380208333357,-0.63458251953125,-1.3750000000000009,0,0,0,0,1,0,0,1,0,1,0,0,1,0,109
110,0,145,149,3,2,4,1,2,0,0,0,1.1755,0,0,1522.9,1523.4,1524.6,1525.7,1526.7,101,1.1614583333333321,1.7384033203125,0.6666666666666679,1.5,2.333333333333333,1.5,-1.1614583333333321,-1.7384033203125,-0.6666666666666679,0,0,0,0,0,0,1,1,0,0,0,1,0,1,110
111,0,149,152,2,1,3,1,3,0,0,0,0.8648600000000001,0,0,1527.7,1528.2,1529.1,1530.1,1531.1,101,-0.140625,0.4697265625,-0.33333333333333304,0.5,1.3333333333333333,0.5,-0.140625,-0.4697265625,-0.33333333333333304,0,0,0,0,0,1,0,1,0,0,1,0,1,0,111
112,1,152,152,1,2,3,1,0,0,1,2,4.2547,0,0,1532.1,1532.7,1536.9,1537.9,1539.0,101,-0.03678385416666785,0.010986328125,-0.53125,0.5,1.3333333333333333,1.3333333333333333,-0.03678385416666785,-0.010986328125,-0.53125,0,0,0,0,0,1,0,1,0,0,1,0,1,0,112
113,1,152,152,2,3,1,1,1,0,1,2,6.2775,0,0,1540.0,1540.5,1546.8,1547.8,1548.8,101,-1.5735677083333321,-1.47802734375,-2.375000000000001,-1.5,-0.6666666666666667,-0.590909090909091,-1.5735677083333321,-1.47802734375,-2.375000000000001,0,0,0,1,0,0,0,1,1,0,0,0,0,1,113
114,1,152,152,3,4,1,1,2,0,1,2,4.9547,0,0,1549.8,1550.4,1555.3,1556.3,1557.4,101,-1.3359374999999982,-1.068115234375,-2.333333333333333,-1.5,-0.6666666666666667,-0.5,-1.3359374999999982,-1.068115234375,-2.333333333333333,0,0,0,1,0,0,0,1,1,0,0,0,0,1,114
115,1,152,152,4,5,1,1,3,0,1,2,0.8296,0,0,1558.4,1558.9,1559.7,1560.8,1561.8,101,-1.549479166666666,-0.720703125,-2.333333333333334,-1.5,-0.6666666666666667,-0.38888888888888884,-1.549479166666666,-0.720703125,-2.333333333333334,0,0,0,1,0,0,0,1,1,0,0,0,0,1,115
116,1,152,152,5,6,1,2,0,1,1,3,1.5728,0,0,1562.8,1563.3,1564.9,1565.9,1566.9,101,-1.56396484375,-1.377685546875,-1.5104166666666679,-1.5,-1.1666666666666667,-0.75,-1.56396484375,-1.377685546875,-1.5104166666666679,0,0,0,1,0,0,0,1,1,0,0,0,0,1,116
117,0,152,153,6,4,1,2,1,1,1,3,0.63875,0,0,1567.9,1568.5,1569.1,1570.1,1571.1,101,-0.95458984375,-0.36981201171875,-0.04166666666666785,-1.5,-1.1666666666666667,-0.75,-0.95458984375,-0.36981201171875,-0.04166666666666785,1,0,0,0,0,0,0,0,1,0,0,0,0,1,117
118,0,153,157,4,2,4,2,2,1,1,3,0.7901199999999999,0,0,1572.2,1572.7,1573.5,1574.5,1575.5,101,0.931640625,1.2181396484375,-1.0,1.5,0.33333333333333326,0.75,-0.931640625,-1.2181396484375,-1.0,0,0,0,0,0,0,1,1,0,0,0,1,0,1,118
119,0,157,160,2,0,3,2,3,1,1,3,0.83147,0,0,1576.5,1577.0,1577.9,1578.9,1579.9,101,-0.7890625,-0.35693359375,-2.0,0.5,-0.16666666666666674,0.25,-0.7890625,-0.35693359375,-2.0,0,0,0,0,0,1,0,1,0,0,1,0,1,0,119
120,1,160,160,0,1,2,2,0,1,0,1,0.47885,0,0,1580.9,1581.5,1582.0,1583.0,1584.0,101,-1.5442708333333321,-1.2416229248046875,-1.666666666666667,-0.5,-0.6666666666666667,-0.6666666666666667,-1.5442708333333321,-1.2416229248046875,-1.666666666666667,0,0,1,0,0,0,0,0,0,1,0,0,1,0,120
121,1,160,160,1,2,3,2,1,1,0,1,6.1642,0,0,1585.0,1585.5,1591.7,1592.7,1593.7,101,-2.96875,-2.3812713623046875,-3.3333333333333335,0.5,-0.16666666666666674,-0.25,-2.96875,-2.3812713623046875,-3.3333333333333335,0,0,1,0,0,0,0,0,0,0,1,0,1,0,121
122,1,160,160,2,3,1,2,2,1,0,1,0.92629,0,0,1594.8,1595.3,1596.2,1597.2,1598.3,101,-3.684895833333332,-2.69586181640625,-4.0,-1.5,-1.1666666666666667,-1.375,-3.684895833333332,-2.69586181640625,-4.0,0,0,0,1,0,0,0,1,1,0,0,0,0,1,122
123,0,160,164,3,1,4,2,3,1,0,1,0.71362,0,0,1599.3,1599.8,1600.5,1601.5,1602.6,101,-0.6848958333333321,0.405517578125,-1.0,1.5,0.33333333333333326,-0.08333333333333348,-0.6848958333333321,-0.405517578125,-1.0,0,0,0,0,0,0,1,1,0,0,0,1,0,1,123
124,0,164,167,1,0,3,1,0,0,0,0,2.1576,0,0,1603.6,1604.1,1606.3,1607.3,1608.3,101,-0.25610351562500355,-0.067291259765625,-0.53125,0.5,1.3333333333333333,0.5,-0.25610351562500355,-0.067291259765625,-0.53125,0,0,0,0,0,1,0,1,0,0,1,0,1,0,124
125,1,167,167,0,1,2,1,1,0,0,0,0.8482299999999999,0,0,1609.3,1609.8,1610.7,1611.7,1612.7,101,-1.6832682291666679,-1.6026611328125,-1.791666666666667,-0.5,0.33333333333333326,-0.5,-1.6832682291666679,-1.6026611328125,-1.791666666666667,0,1,0,0,0,0,0,0,0,1,0,0,1,0,125
126,1,167,167,1,2,2,1,2,0,0,0,0.98295,0,0,1613.7,1614.3,1615.3,1616.3,1617.3,101,-1.35546875,-1.01513671875,-1.5,-0.5,0.33333333333333326,-0.5,-1.35546875,-1.01513671875,-1.5,0,0,0,0,1,0,0,1,0,1,0,0,1,0,126
127,0,167,171,2,1,4,1,3,0,0,0,0.69616,0,0,1618.3,1618.8,1619.5,1620.6,1621.6,101,0.859375,1.4697265625,0.666666666666667,1.5,2.333333333333333,1.5,-0.859375,-1.4697265625,-0.666666666666667,0,0,0,0,0,0,1,1,0,0,0,1,0,1,127
128,0,171,174,1,0,3,1,0,0,0,0,0.7568,0,0,1622.6,1623.1,1623.9,1624.9,1625.9,101,-0.25610351562500355,-0.067291259765625,-0.53125,0.5,1.3333333333333333,0.5,-0.25610351562500355,-0.067291259765625,-0.53125,0,0,0,0,0,1,0,1,0,0,1,0,1,0,128
129,1,174,174,0,1,1,1,1,0,0,0,0.79947,0,0,1626.9,1627.4,1628.3,1629.3,1630.3,101,-1.6832682291666679,-1.6026611328125,-1.791666666666667,-1.5,-0.6666666666666667,-1.5,-1.6832682291666679,-1.6026611328125,-1.791666666666667,0,1,0,0,0,0,0,0,1,0,0,0,0,1,129
130,1,174,174,1,2,1,1,2,0,0,0,0.60021,0,0,1631.3,1631.8,1632.4,1633.5,1634.5,101,-2.35546875,-2.01513671875,-2.5,-1.5,-0.6666666666666667,-1.5,-2.35546875,-2.01513671875,-2.5,0,0,0,1,0,0,0,1,1,0,0,0,0,1,130
131,1,174,174,2,3,2,1,3,0,0,0,1.5209,0,0,1635.5,1636.0,1637.5,1638.6,1639.6,101,-1.140625,-0.5302734375,-1.333333333333333,-0.5,0.33333333333333326,-0.5,-1.140625,-0.5302734375,-1.333333333333333,0,0,0,0,1,0,0,1,0,1,0,0,1,0,131
132,0,174,178,3,2,4,1,0,0,1,2,0.5968100000000001,0,0,1640.6,1641.1,1641.7,1642.7,1643.8,101,1.623046875,1.78118896484375,0.9895833333333321,1.5,2.333333333333333,2.333333333333333,-1.623046875,-1.78118896484375,-0.9895833333333321,0,0,0,0,0,0,1,1,0,0,0,1,0,1,132
133,0,178,182,2,1,4,1,1,0,1,2,0.50953,0,0,1644.8,1645.3,1645.8,1646.8,1647.9,101,1.4264322916666679,1.52197265625,0.625,1.5,2.333333333333333,2.409090909090909,-1.4264322916666679,-1.52197265625,-0.625,0,0,0,0,0,0,1,1,0,0,0,1,0,1,133
134,1,182,182,1,2,2,1,2,0,1,2,1.5935,0,0,1648.9,1649.4,1651.0,1652.0,1653.0,101,-0.8111979166666679,-0.887939453125,-1.5,-0.5,0.33333333333333326,0.5,-0.8111979166666679,-0.887939453125,-1.5,0,0,0,0,1,0,0,1,0,1,0,0,1,0,134
135,1,182,182,2,3,1,1,3,0,1,2,0.7941600000000001,0,0,1654.1,1654.6,1655.4,1656.4,1657.4,101,-1.122395833333334,-1.27587890625,-2.333333333333333,-1.5,-0.6666666666666667,-0.38888888888888884,-1.122395833333334,-1.27587890625,-2.333333333333333,0,0,0,1,0,0,0,1,1,0,0,0,0,1,135
136,1,182,182,3,4,2,2,0,1,1,3,1.2269,0,0,1658.4,1659.0,1660.2,1661.2,1662.2,101,-1.178548177083334,-1.1503143310546875,-1.71875,-0.5,-0.6666666666666667,-0.25,-1.178548177083334,-1.1503143310546875,-1.71875,0,0,0,0,1,0,0,1,0,1,0,0,1,0,136
137,0,182,186,4,2,4,2,1,1,1,3,0.72216,0,0,1663.3,1663.8,1664.5,1665.5,1666.5,101,1.142903645833334,1.199371337890625,0.375,1.5,0.33333333333333326,0.75,-1.142903645833334,-1.199371337890625,-0.375,0,0,0,0,0,0,1,1,0,0,0,1,0,1,137
138,0,186,189,2,0,3,2,2,1,1,3,2.4621,0,0,1667.6,1668.1,1670.6,1671.6,1672.6,101,-0.4960937500000018,-0.3719482421875,-2.0,0.5,-0.16666666666666674,0.25,-0.4960937500000018,-0.3719482421875,-2.0,0,0,0,0,0,1,0,1,0,0,1,0,1,0,138
139,1,189,189,0,1,2,2,3,1,1,3,0.62815,0,0,1673.6,1674.1,1674.8,1675.8,1676.8,101,-1.666666666666667,-1.0810546875,-1.6666666666666667,-0.5,-0.6666666666666667,-0.25,-1.666666666666667,-1.0810546875,-1.6666666666666667,0,0,1,0,0,0,0,0,0,1,0,0,1,0,139
140,1,189,189,1,2,3,2,0,1,0,1,1.3794,0,0,1677.8,1678.3,1679.7,1680.8,1681.8,101,-2.606770833333334,-2.4914169311523438,-3.333333333333334,0.5,-0.16666666666666674,-0.16666666666666674,-2.606770833333334,-2.4914169311523438,-3.333333333333334,0,0,1,0,0,0,0,0,0,0,1,0,1,0,140
141,1,189,189,2,3,2,2,1,1,0,1,0.66084,0,0,1682.8,1683.3,1684.0,1685.0,1686.0,101,-2.0312500000000018,-1.508087158203125,-3.0,-0.5,-0.6666666666666667,-0.75,-2.0312500000000018,-1.508087158203125,-3.0,0,0,0,0,1,0,0,1,0,1,0,0,1,0,141
142,0,189,193,3,1,4,2,2,1,0,1,0.54693,0,0,1687.0,1687.6,1688.1,1689.1,1690.2,101,-0.031250000000001776,0.6558837890625,-1.0,1.5,0.33333333333333326,0.125,-0.031250000000001776,-0.6558837890625,-1.0,0,0,0,0,0,0,1,1,0,0,0,1,0,1,142
143,1,193,193,1,2,1,2,3,1,0,1,0.78959,0,0,1691.2,1691.7,1692.5,1693.5,1694.5,101,-3.53125,-2.9638671875,-3.3333333333333335,-1.5,-1.1666666666666667,-1.5833333333333335,-3.53125,-2.9638671875,-3.3333333333333335,0,0,1,0,0,0,0,0,1,0,0,0,0,1,143
0,1,0,0,3,4,1,1,0,0,1,2,2.4293,0,0,6946.8,6947.3,6949.7,6950.8,6951.8,102,-1.376953125,-1.21881103515625,-2.010416666666668,-1.5,-0.6666666666666667,-0.6666666666666667,-1.376953125,-1.21881103515625,-2.010416666666668,0,0,0,1,0,0,0,1,1,0,0,0,0,1,0
1,0,0,2,4,3,2,1,1,0,1,2,1.2905,0,0,6952.8,6953.3,6954.6,6955.7,6956.7,102,-0.18033854166666785,0.080810546875,-0.8333333333333321,-0.5,0.33333333333333326,0.40909090909090895,-0.18033854166666785,-0.080810546875,-0.8333333333333321,0,0,0,0,1,0,0,1,0,1,0,0,1,0,1
2,0,2,6,3,2,4,1,2,0,1,2,1.016,0,0,6957.7,6958.2,6959.2,6960.3,6961.3,102,1.6640625000000018,1.931884765625,0.6666666666666679,1.5,2.333333333333333,2.5,-1.6640625000000018,-1.931884765625,-0.6666666666666679,0,0,0,0,0,0,1,1,0,0,0,1,0,1,2
3,0,6,10,2,1,4,1,3,0,1,2,1.1757,0,0,6962.3,6962.8,6964.0,6965.0,6966.0,102,1.877604166666666,1.72412109375,0.666666666666667,1.5,2.333333333333333,2.611111111111111,-1.877604166666666,-1.72412109375,-0.666666666666667,0,0,0,0,0,0,1,1,0,0,0,1,0,1,3
4,1,10,10,1,2,1,2,0,1,1,3,0.8412,0,0,6967.1,6967.6,6968.4,6969.4,6970.5,102,-3.071858723958332,-2.2638778686523438,-3.333333333333334,-1.5,-1.1666666666666667,-0.75,-3.071858723958332,-2.2638778686523438,-3.333333333333334,0,0,1,0,0,0,0,0,1,0,0,0,0,1,4
5,1,10,10,2,3,1,2,1,1,1,3,0.48851999999999995,0,0,6971.5,6972.0,6972.5,6973.5,6974.5,102,-2.4404296875,-2.371856689453125,-4.0,-1.5,-1.1666666666666667,-0.75,-2.4404296875,-2.371856689453125,-4.0,0,0,0,1,0,0,0,1,1,0,0,0,0,1,5
6,1,10,10,3,4,2,2,2,1,1,3,1.2059,0,0,6975.5,6976.1,6977.3,6978.3,6979.3,102,-1.25390625,-1.1624755859375,-3.0,-0.5,-0.6666666666666667,-0.25,-1.25390625,-1.1624755859375,-3.0,0,0,0,0,1,0,0,1,0,1,0,0,1,0,6
7,0,10,13,4,2,3,2,3,1,1,3,0.58263,0,0,6980.3,6980.8,6981.4,6982.5,6983.5,102,-0.0052083333333339255,0.175048828125,-2.0,0.5,-0.16666666666666674,0.25,-0.0052083333333339255,-0.175048828125,-2.0,0,0,0,0,0,1,0,1,0,0,1,0,1,0,7
8,1,13,13,2,3,1,2,0,1,0,1,0.91189,0,0,6984.5,6985.0,6985.9,6987.0,6988.0,102,-2.8604736328125,-2.517425537109375,-4.0,-1.5,-1.1666666666666667,-1.1666666666666667,-2.8604736328125,-2.517425537109375,-4.0,0,0,0,1,0,0,0,1,1,0,0,0,0,1,8
9,0,13,17,3,1,4,2,1,1,0,1,0.53185,0,0,6989.0,6989.5,6990.1,6991.1,6992.1,102,0.18603515625,0.6434326171875,-1.0,1.5,0.33333333333333326,0.25,-0.18603515625,-0.6434326171875,-1.0,0,0,0,0,0,0,1,1,0,0,0,1,0,1,9
10,1,17,17,1,2,2,2,2,1,0,1,0.83124,0,0,6993.1,6993.6,6994.5,6995.5,6996.5,102,-3.140625,-2.5302734375,-3.333333333333333,-0.5,-0.6666666666666667,-0.875,-3.140625,-2.5302734375,-3.333333333333333,0,0,1,0,0,0,0,0,0,1,0,0,1,0,10
11,1,17,17,2,3,1,2,3,1,0,1,0.39046,0,0,6997.5,6998.0,6998.4,6999.5,7000.5,102,-3.955729166666668,-3.103515625,-4.0,-1.5,-1.1666666666666667,-1.5833333333333335,-3.955729166666668,-3.103515625,-4.0,0,0,0,1,0,0,0,1,1,0,0,0,0,1,11
12,0,17,21,3,2,4,1,0,0,1,2,1.2237,0,0,7001.5,7002.0,7003.2,7004.3,7005.3,102,1.623046875,1.78118896484375,0.9895833333333321,1.5,2.333333333333333,2.333333333333333,-1.623046875,-1.78118896484375,-0.9895833333333321,0,0,0,0,0,0,1,1,0,0,0,1,0,1,12
13,1,21,21,2,3,1,1,1,0,1,2,0.89591,0,0,7006.3,7006.8,7007.7,7008.7,7009.8,102,-1.5735677083333321,-1.47802734375,-2.375000000000001,-1.5,-0.6666666666666667,-0.590909090909091,-1.5735677083333321,-1.47802734375,-2.375000000000001,0,0,0,1,0,0,0,1,1,0,0,0,0,1,13
14,1,21,21,3,4,1,1,2,0,1,2,0.54051,0,0,7010.8,7011.3,7011.8,7012.9,7013.9,102,-1.3359374999999982,-1.068115234375,-2.333333333333333,-1.5,-0.6666666666666667,-0.5,-1.3359374999999982,-1.068115234375,-2.333333333333333,0,0,0,1,0,0,0,1,1,0,0,0,0,1,14
15,1,21,21,4,5,2,1,3,0,1,2,0.9117700000000001,0,0,7014.9,7015.4,7016.3,7017.4,7018.4,102,-0.5494791666666661,0.279296875,-1.333333333333334,-0.5,0.33333333333333326,0.6111111111111112,-0.5494791666666661,-0.279296875,-1.333333333333334,0,0,0,0,1,0,0,1,0,1,0,0,1,0,15
16,0,21,25,5,3,4,2,0,1,1,3,0.66793,0,0,7019.4,7019.9,7020.6,7021.6,7022.6,102,1.43603515625,1.622314453125,1.4895833333333321,1.5,0.33333333333333326,0.75,-1.43603515625,-1.622314453125,-1.4895833333333321,0,0,0,0,0,0,1,1,0,0,0,1,0,1,16
17,1,25,25,3,4,1,2,1,1,1,3,1.2579,0,0,7023.6,7024.2,7025.4,7026.4,7027.5,102,-2.30126953125,-2.14093017578125,-4.0,-1.5,-1.1666666666666667,-0.75,-2.30126953125,-2.14093017578125,-4.0,0,0,0,1,0,0,0,1,1,0,0,0,0,1,17
18,0,25,28,4,2,3,2,2,1,1,3,0.6166,0,0,7028.5,7029.0,7029.6,7030.6,7031.7,102,-0.068359375,0.2181396484375,-2.0,0.5,-0.16666666666666674,0.25,-0.068359375,-0.2181396484375,-2.0,0,0,0,0,0,1,0,1,0,0,1,0,1,0,18
19,0,28,32,2,0,4,2,3,1,1,3,0.63244,0,0,7032.7,7033.2,7033.8,7034.9,7035.9,102,0.2109375,0.64306640625,-1.0,1.5,0.33333333333333326,0.75,-0.2109375,-0.64306640625,-1.0,0,0,0,0,0,0,1,1,0,0,0,1,0,1,19
20,1,32,32,0,1,3,2,0,1,0,1,0.59992,0,0,7036.9,7037.4,7038.0,7039.0,7040.1,102,-1.5442708333333321,-1.2416229248046875,-1.666666666666667,0.5,-0.16666666666666674,-0.16666666666666674,-1.5442708333333321,-1.2416229248046875,-1.666666666666667,0,0,1,0,0,0,0,0,0,0,1,0,1,0,20
21,1,32,32,1,2,3,2,1,1,0,1,0.68052,0,0,7041.1,7041.6,7042.3,7043.3,7044.3,102,-2.96875,-2.3812713623046875,-3.3333333333333335,0.5,-0.16666666666666674,-0.25,-2.96875,-2.3812713623046875,-3.3333333333333335,0,0,1,0,0,0,0,0,0,0,1,0,1,0,21
22,1,32,32,2,3,2,2,2,1,0,1,0.60593,0,0,7045.3,7045.9,7046.5,7047.5,7048.5,102,-2.684895833333332,-1.69586181640625,-3.0,-0.5,-0.6666666666666667,-0.875,-2.684895833333332,-1.69586181640625,-3.0,0,0,0,0,1,0,0,1,0,1,0,0,1,0,22
23,1,32,32,3,4,1,2,3,1,0,1,0.63056,0,0,7049.5,7050.0,7050.7,7051.7,7052.7,102,-3.684895833333332,-2.594482421875,-4.0,-1.5,-1.1666666666666667,-1.5833333333333335,-3.684895833333332,-2.594482421875,-4.0,0,0,0,1,0,0,0,1,1,0,0,0,0,1,23
24,0,32,35,4,3,3,1,0,0,0,0,0.88579,0,0,7053.7,7054.3,7055.2,7056.2,7057.2,102,0.5869140625,0.9045639038085938,0.24999999999999822,0.5,1.3333333333333333,0.5,-0.5869140625,-0.9045639038085938,-0.24999999999999822,0,0,0,0,0,1,0,1,0,0,1,0,1,0,24
25,0,35,39,3,2,4,1,1,0,0,0,0.54724,0,0,7058.2,7058.7,7059.3,7060.3,7061.3,102,1.197265625,1.692108154296875,0.6666666666666661,1.5,2.333333333333333,1.5,-1.197265625,-1.692108154296875,-0.6666666666666661,0,0,0,0,0,0,1,1,0,0,0,1,0,1,25
26,0,39,43,2,1,4,1,2,0,0,0,0.62983,0,0,7062.3,7062.9,7063.5,7064.5,7065.5,102,0.8828125,1.4161376953125,0.6666666666666661,1.5,2.333333333333333,1.5,-0.8828125,-1.4161376953125,-0.6666666666666661,0,0,0,0,0,0,1,1,0,0,0,1,0,1,26
27,0,43,47,1,0,4,1,3,0,0,0,0.6931,0,0,7066.6,7067.1,7067.8,7068.8,7069.8,102,0.46875,1.0361328125,0.6666666666666665,1.5,2.333333333333333,1.5,-0.46875,-1.0361328125,-0.6666666666666665,0,0,0,0,0,0,1,1,0,0,0,1,0,1,27
28,0,47,47,0,0,4,1,0,0,0,0,1.5618,0,1,7070.8,7071.4,7072.9,7074.0,7075.5,102,-1.8201497395833321,-1.6787872314453125,-1.833333333333333,1.5,2.333333333333333,1.5,-1.8201497395833321,-1.6787872314453125,-1.833333333333333,0,1,0,0,0,0,0,0,0,0,0,1,0,1,28
29,1,47,47,0,1,3,1,1,0,0,0,0.34262,0,0,7076.5,7077.0,7077.4,7078.4,7079.4,102,-1.6832682291666679,-1.6026611328125,-1.791666666666667,0.5,1.3333333333333333,0.5,-1.6832682291666679,-1.6026611328125,-1.791666666666667,0,1,0,0,0,0,0,0,0,0,1,0,1,0,29
30,1,47,47,1,2,3,1,2,0,0,0,0.24924000000000002,0,0,7080.5,7081.0,7081.2,7082.3,7083.3,102,-0.35546875,-0.01513671875,-0.5,0.5,1.3333333333333333,0.5,-0.35546875,-0.01513671875,-0.5,0,0,0,0,0,1,0,1,0,0,1,0,1,0,30
31,1,47,47,2,3,3,1,3,0,0,0,0.28773000000000004,0,0,7084.3,7084.8,7085.1,7086.1,7087.1,102,-0.140625,0.4697265625,-0.33333333333333304,0.5,1.3333333333333333,0.5,-0.140625,-0.4697265625,-0.33333333333333304,0,0,0,0,0,1,0,1,0,0,1,0,1,0,31
32,1,47,47,3,4,2,1,0,0,0,0,0.43718,0,0,7088.2,7088.7,7089.1,7090.1,7091.2,102,-0.7289225260416643,-0.3501129150390625,-1.0104166666666679,-0.5,0.33333333333333326,-0.5,-0.7289225260416643,-0.3501129150390625,-1.0104166666666679,0,0,0,0,1,0,0,1,0,1,0,0,1,0,32
33,1,47,47,4,5,1,1,1,0,0,0,0.6045699999999999,0,0,7092.2,7092.7,7093.3,7094.3,7095.3,102,-1.4537760416666643,-1.065643310546875,-1.8333333333333321,-1.5,-0.6666666666666667,-1.5,-1.4537760416666643,-1.065643310546875,-1.8333333333333321,0,0,0,1,0,0,0,1,1,0,0,0,0,1,33
34,0,47,50,5,4,3,1,2,0,0,0,0.82924,0,0,7096.4,7096.9,7097.7,7098.7,7099.8,102,0.9309895833333357,1.2606201171875,0.4999999999999982,0.5,1.3333333333333333,0.5,-0.9309895833333357,-1.2606201171875,-0.4999999999999982,0,0,0,0,0,1,0,1,0,0,1,0,1,0,34
35,1,50,50,4,5,2,1,3,0,0,0,2.0205,0,0,7100.8,7101.3,7103.3,7104.3,7105.4,102,-0.6067708333333339,0.01416015625,-1.333333333333334,-0.5,0.33333333333333326,-0.5,-0.6067708333333339,-0.01416015625,-1.333333333333334,0,0,0,0,1,0,0,1,0,1,0,0,1,0,35
36,0,50,52,5,4,2,1,0,0,1,2,1.2125,0,0,7106.4,7106.9,7108.1,7109.1,7110.2,102,0.15983072916666785,0.31060791015625,-0.20833333333333215,-0.5,0.33333333333333326,0.33333333333333326,-0.15983072916666785,-0.31060791015625,-0.20833333333333215,0,0,0,0,1,0,0,1,0,1,0,0,1,0,36
37,0,52,56,4,3,4,1,1,0,1,2,0.38045999999999996,0,0,7111.2,7111.7,7112.1,7113.1,7114.1,102,1.8196614583333321,2.080810546875,1.1666666666666679,1.5,2.333333333333333,2.409090909090909,-1.8196614583333321,-2.080810546875,-1.1666666666666679,0,0,0,0,0,0,1,1,0,0,0,1,0,1,37
38,0,56,59,3,2,3,1,2,0,1,2,0.51772,0,0,7115.1,7115.7,7116.2,7117.2,7118.2,102,0.6640625000000018,0.931884765625,-0.33333333333333215,0.5,1.3333333333333333,1.5,-0.6640625000000018,-0.931884765625,-0.33333333333333215,0,0,0,0,0,1,0,1,0,0,1,0,1,0,38
39,1,59,59,2,3,1,1,3,0,1,2,2.4018,0,0,7119.2,7119.8,7122.2,7123.2,7124.2,102,-1.122395833333334,-1.27587890625,-2.333333333333333,-1.5,-0.6666666666666667,-0.38888888888888884,-1.122395833333334,-1.27587890625,-2.333333333333333,0,0,0,1,0,0,0,1,1,0,0,0,0,1,39
40,1,59,59,3,4,2,2,0,1,1,3,0.8745200000000001,0,0,7125.2,7125.7,7126.6,7127.6,7128.7,102,-1.178548177083334,-1.1503143310546875,-1.71875,-0.5,-0.6666666666666667,-0.25,-1.178548177083334,-1.1503143310546875,-1.71875,0,0,0,0,1,0,0,1,0,1,0,0,1,0,40
41,1,59,59,4,5,3,2,1,1,1,3,0.63258,0,0,7129.7,7130.2,7130.8,7131.9,7132.9,102,0.14290364583333393,0.199371337890625,-0.625,0.5,-0.16666666666666674,0.25,-0.14290364583333393,-0.199371337890625,-0.625,0,0,0,0,0,1,0,1,0,0,1,0,1,0,41
42,1,59,59,5,6,2,2,2,1,1,3,0.81584,0,0,7133.9,7134.4,7135.2,7136.3,7137.3,102,-0.4661458333333339,-0.415283203125,-1.5,-0.5,-0.6666666666666667,-0.25,-0.4661458333333339,-0.415283203125,-1.5,0,0,0,0,1,0,0,1,0,1,0,0,1,0,42
43,0,59,62,6,4,3,2,3,1,1,3,0.5839,0,0,7138.3,7138.8,7139.4,7140.4,7141.4,102,1.4635416666666679,1.50146484375,-0.33333333333333215,0.5,-0.16666666666666674,0.25,-1.4635416666666679,-1.50146484375,-0.33333333333333215,1,0,0,0,0,0,0,0,0,0,1,0,1,0,43
44,0,62,66,4,2,4,2,0,1,0,1,0.6251399999999999,0,0,7142.5,7143.0,7143.6,7144.6,7145.6,102,0.90625,1.1374969482421875,0.8958333333333321,1.5,0.33333333333333326,0.33333333333333326,-0.90625,-1.1374969482421875,-0.8958333333333321,0,0,0,0,0,0,1,1,0,0,0,1,0,1,44
45,1,66,66,2,3,1,2,1,1,0,1,0.32925,0,0,7146.7,7147.2,7147.5,7148.5,7149.6,102,-3.0312500000000018,-2.508087158203125,-4.0,-1.5,-1.1666666666666667,-1.25,-3.0312500000000018,-2.508087158203125,-4.0,0,0,0,1,0,0,0,1,1,0,0,0,0,1,45
46,1,66,66,3,4,2,2,2,1,0,1,0.39633,0,0,7150.6,7151.1,7151.5,7152.5,7153.5,102,-2.0312500000000018,-1.3441162109375,-3.0,-0.5,-0.6666666666666667,-0.875,-2.0312500000000018,-1.3441162109375,-3.0,0,0,0,0,1,0,0,1,0,1,0,0,1,0,46
47,1,66,66,4,5,1,2,3,1,0,1,0.34925,0,0,7154.6,7155.1,7155.4,7156.5,7157.5,102,-3.0312500000000018,-2.12548828125,-4.0,-1.5,-1.1666666666666667,-1.5833333333333335,-3.0312500000000018,-2.12548828125,-4.0,0,0,0,1,0,0,0,1,1,0,0,0,0,1,47
48,1,66,66,5,6,2,1,0,0,0,0,0.60785,0,0,7158.5,7159.0,7159.6,7160.6,7161.7,102,0.01839192708333215,0.2171783447265625,-0.20833333333333215,-0.5,0.33333333333333326,-0.5,-0.01839192708333215,-0.2171783447265625,-0.20833333333333215,0,0,0,0,1,0,0,1,0,1,0,0,1,0,48
49,0,66,70,6,5,4,1,1,0,0,0,0.45643999999999996,0,0,7162.7,7163.2,7163.7,7164.7,7165.7,102,2.981119791666668,3.187103271484375,2.833333333333332,1.5,2.333333333333333,1.5,-2.981119791666668,-3.187103271484375,-2.833333333333332,1,0,0,0,0,0,0,0,0,0,0,1,0,1,49
50,1,70,70,5,6,1,1,2,0,0,0,0.71111,0,0,7166.7,7167.2,7168.0,7169.0,7170.0,102,-1.0690104166666643,-0.7393798828125,-1.5000000000000018,-1.5,-0.6666666666666667,-1.5,-1.0690104166666643,-0.7393798828125,-1.5000000000000018,0,0,0,1,0,0,0,1,1,0,0,0,0,1,50
51,0,70,73,6,5,3,1,3,0,0,0,0.60319,0,0,7171.0,7171.5,7172.1,7173.2,7174.2,102,1.9375,2.20166015625,1.333333333333334,0.5,1.3333333333333333,0.5,-1.9375,-2.20166015625,-1.333333333333334,1,0,0,0,0,0,0,0,0,0,1,0,1,0,51
52,1,73,73,5,6,2,1,0,0,1,2,0.69188,0,0,7175.2,7175.7,7176.4,7177.4,7178.5,102,0.15983072916666785,0.31060791015625,-0.20833333333333215,-0.5,0.33333333333333326,0.33333333333333326,-0.15983072916666785,-0.31060791015625,-0.20833333333333215,0,0,0,0,1,0,0,1,0,1,0,0,1,0,52
53,0,73,76,6,5,3,1,1,0,1,2,0.48053,0,0,7179.5,7180.0,7180.5,7181.5,7182.5,102,2.394856770833332,2.303955078125,1.8333333333333321,0.5,1.3333333333333333,1.409090909090909,-2.394856770833332,-2.303955078125,-1.8333333333333321,1,0,0,0,0,0,0,0,0,0,1,0,1,0,53
54,0,76,79,5,4,3,1,2,0,1,2,0.53387,0,0,7183.5,7184.1,7184.6,7185.6,7186.6,102,0.9752604166666661,1.45947265625,0.4999999999999982,0.5,1.3333333333333333,1.5,-0.9752604166666661,-1.45947265625,-0.4999999999999982,0,0,0,0,0,1,0,1,0,0,1,0,1,0,54
55,0,79,83,4,3,4,1,3,0,1,2,0.50525,0,0,7187.7,7188.2,7188.7,7189.7,7190.7,102,1.450520833333334,2.279296875,0.6666666666666661,1.5,2.333333333333333,2.611111111111111,-1.450520833333334,-2.279296875,-0.6666666666666661,0,0,0,0,0,0,1,1,0,0,0,1,0,1,55
56,1,83,83,3,4,2,2,0,1,0,1,0.58975,0,0,7191.7,7192.3,7192.9,7193.9,7194.9,102,-1.3671875,-1.2316360473632812,-1.71875,-0.5,-0.6666666666666667,-0.6666666666666667,-1.3671875,-1.2316360473632812,-1.71875,0,0,0,0,1,0,0,1,0,1,0,0,1,0,56
57,1,83,83,4,5,2,2,1,1,0,1,0.35846999999999996,0,0,7195.9,7196.4,7196.8,7197.8,7198.8,102,-1.15625,-0.9632720947265625,-1.625,-0.5,-0.6666666666666667,-0.75,-1.15625,-0.9632720947265625,-1.625,0,0,0,0,1,0,0,1,0,1,0,0,1,0,57
58,0,83,87,5,3,4,2,2,1,0,1,0.44109,0,0,7199.9,7200.4,7200.8,7201.8,7202.9,102,1.1875,1.42138671875,0.5,1.5,0.33333333333333326,0.125,-1.1875,-1.42138671875,-0.5,0,0,0,0,0,0,1,1,0,0,0,1,0,1,58
59,1,87,87,3,4,3,2,3,1,0,1,1.0566,0,0,7203.9,7204.4,7205.5,7206.5,7207.5,102,-1.6848958333333321,-0.594482421875,-2.0,0.5,-0.16666666666666674,-0.5833333333333335,-1.6848958333333321,-0.594482421875,-2.0,0,0,0,0,0,1,0,1,0,0,1,0,1,0,59
60,1,87,87,4,5,1,1,0,0,0,0,0.8550700000000001,0,0,7208.5,7209.0,7209.9,7210.9,7211.9,102,-1.4130859375,-1.0954360961914062,-1.7500000000000018,-1.5,-0.6666666666666667,-1.5,-1.4130859375,-1.0954360961914062,-1.7500000000000018,0,0,0,1,0,0,0,1,1,0,0,0,0,1,60
61,1,87,87,5,6,1,1,1,0,0,0,0.76579,0,0,7212.9,7213.5,7214.2,7215.3,7216.3,102,-1.0234375,-0.765960693359375,-1.333333333333334,-1.5,-0.6666666666666667,-1.5,-1.0234375,-0.765960693359375,-1.333333333333334,0,0,0,1,0,0,0,1,1,0,0,0,0,1,61
62,0,87,88,6,5,1,1,2,0,0,0,1.3358,0,0,7217.3,7217.8,7219.2,7220.2,7221.2,102,0.234375,0.25836181640625,0.16666666666666607,-1.5,-0.6666666666666667,-1.5,-0.234375,-0.25836181640625,-0.16666666666666607,1,0,0,0,0,0,0,0,1,0,0,0,0,1,62
63,0,88,90,5,4,2,1,3,0,0,0,1.2824,0,0,7222.2,7222.7,7224.0,7225.1,7226.1,102,-0.125,0.280029296875,-1.3333333333333321,-0.5,0.33333333333333326,-0.5,-0.125,-0.280029296875,-1.3333333333333321,0,0,0,0,1,0,0,1,0,1,0,0,1,0,63
64,0,90,94,4,3,4,1,0,0,1,2,0.7678,0,0,7227.1,7227.6,7228.4,7229.4,7230.4,102,2.040283203125,2.072772979736328,1.2499999999999982,1.5,2.333333333333333,2.333333333333333,-2.040283203125,-2.072772979736328,-1.2499999999999982,0,0,0,0,0,0,1,1,0,0,0,1,0,1,64
65,0,94,97,3,2,3,1,1,0,1,2,0.45786000000000004,0,0,7231.4,7232.0,7232.4,7233.4,7234.5,102,0.8430989583333321,0.9709930419921875,-0.3333333333333339,0.5,1.3333333333333333,1.409090909090909,-0.8430989583333321,-0.9709930419921875,-0.3333333333333339,0,0,0,0,0,1,0,1,0,0,1,0,1,0,65
66,0,97,100,2,1,3,1,2,0,1,2,0.44051,0,0,7235.5,7236.0,7236.4,7237.5,7238.5,102,0.5013020833333339,0.87591552734375,-0.3333333333333339,0.5,1.3333333333333333,1.5,-0.5013020833333339,-0.87591552734375,-0.3333333333333339,0,0,0,0,0,1,0,1,0,0,1,0,1,0,66
67,1,100,100,1,2,1,1,3,0,1,2,0.43188999999999994,0,0,7239.5,7240.0,7240.5,7241.5,7242.5,102,-2.333333333333333,-1.252685546875,-2.3333333333333335,-1.5,-0.6666666666666667,-0.38888888888888884,-2.333333333333333,-1.252685546875,-2.3333333333333335,0,0,0,1,0,0,0,1,1,0,0,0,0,1,67
68,1,100,100,2,3,1,2,0,1,1,3,0.47925,0,0,7243.5,7244.0,7244.5,7245.5,7246.6,102,-2.4759521484375,-2.3556976318359375,-4.0,-1.5,-1.1666666666666667,-0.75,-2.4759521484375,-2.3556976318359375,-4.0,0,0,0,1,0,0,0,1,1,0,0,0,0,1,68
69,0,100,103,3,1,3,2,1,1,1,3,1.2124,0,0,7247.6,7248.1,7249.3,7250.3,7251.4,102,-0.30126953125,-0.14093017578125,-2.0,0.5,-0.16666666666666674,0.25,-0.30126953125,-0.14093017578125,-2.0,0,0,0,0,0,1,0,1,0,0,1,0,1,0,69
70,1,103,103,1,2,3,2,2,1,1,3,0.41255,0,0,7252.4,7252.9,7253.3,7254.3,7255.4,102,-2.175130208333334,-2.4366455078125,-3.333333333333333,0.5,-0.16666666666666674,0.25,-2.175130208333334,-2.4366455078125,-3.333333333333333,0,0,1,0,0,0,0,0,0,0,1,0,1,0,70
71,1,103,103,2,3,1,2,3,1,1,3,0.30057,0,0,7256.4,7256.9,7257.2,7258.2,7259.2,102,-2.789062500000001,-2.35693359375,-4.0,-1.5,-1.1666666666666667,-0.75,-2.789062500000001,-2.35693359375,-4.0,0,0,0,1,0,0,0,1,1,0,0,0,0,1,71
72,0,103,107,3,1,4,2,0,1,0,1,0.93725,0,0,7260.3,7260.8,7261.7,7262.7,7263.8,102,0.6328125,0.7683639526367188,0.28125,1.5,0.33333333333333326,0.33333333333333326,-0.6328125,-0.7683639526367188,-0.28125,0,0,0,0,0,0,1,1,0,0,0,1,0,1,72
73,1,107,107,1,2,1,2,1,1,0,1,0.26054,0,0,7264.8,7265.3,7265.6,7266.6,7267.6,102,-2.96875,-2.3812713623046875,-3.3333333333333335,-1.5,-1.1666666666666667,-1.25,-2.96875,-2.3812713623046875,-3.3333333333333335,0,0,1,0,0,0,0,0,1,0,0,0,0,1,73
74,1,107,107,2,3,4,2,2,1,0,1,0.24249,0,0,7268.6,7269.1,7269.4,7270.4,7271.4,102,-0.6848958333333321,0.30413818359375,-1.0,1.5,0.33333333333333326,0.125,-0.6848958333333321,-0.30413818359375,-1.0,0,0,0,0,0,0,1,1,0,0,0,1,0,1,74
75,1,107,107,3,4,3,2,3,1,0,1,0.64132,0,0,7272.5,7273.0,7273.6,7274.6,7275.7,102,-1.6848958333333321,-0.594482421875,-2.0,0.5,-0.16666666666666674,-0.5833333333333335,-1.6848958333333321,-0.594482421875,-2.0,0,0,0,0,0,1,0,1,0,0,1,0,1,0,75
76,0,107,111,4,3,4,1,0,0,0,0,0.45652,0,0,7276.7,7277.2,7277.7,7278.7,7279.7,102,1.5869140625,1.9045639038085938,1.2499999999999982,1.5,2.333333333333333,1.5,-1.5869140625,-1.9045639038085938,-1.2499999999999982,0,0,0,0,0,0,1,1,0,0,0,1,0,1,76
77,1,111,111,3,4,1,1,1,0,0,0,0.55912,0,0,7280.7,7281.2,7281.8,7282.8,7283.8,102,-1.802734375,-1.307891845703125,-2.333333333333334,-1.5,-0.6666666666666667,-1.5,-1.802734375,-1.307891845703125,-2.333333333333334,0,0,0,1,0,0,0,1,1,0,0,0,0,1,77
78,0,111,115,4,3,4,1,2,0,0,0,0.44911999999999996,0,0,7284.9,7285.4,7285.8,7286.9,7287.9,102,1.453125,1.96807861328125,0.6666666666666661,1.5,2.333333333333333,1.5,-1.453125,-1.96807861328125,-0.6666666666666661,0,0,0,0,0,0,1,1,0,0,0,1,0,1,78
79,1,115,115,3,4,2,1,3,0,0,0,0.63189,0,0,7288.9,7289.4,7290.1,7291.1,7292.1,102,-0.96875,-0.203857421875,-1.333333333333333,-0.5,0.33333333333333326,-0.5,-0.96875,-0.203857421875,-1.333333333333333,0,0,0,0,1,0,0,1,0,1,0,0,1,0,79
80,0,115,119,4,3,4,1,0,0,1,2,0.65515,0,0,7293.1,7293.6,7294.3,7295.3,7296.3,102,2.040283203125,2.072772979736328,1.2499999999999982,1.5,2.333333333333333,2.333333333333333,-2.040283203125,-2.072772979736328,-1.2499999999999982,0,0,0,0,0,0,1,1,0,0,0,1,0,1,80
81,1,119,119,3,4,2,1,1,0,1,2,0.68579,0,0,7297.3,7297.9,7298.6,7299.6,7300.6,102,-0.15690104166666785,-0.0290069580078125,-1.333333333333334,-0.5,0.33333333333333326,0.40909090909090895,-0.15690104166666785,-0.0290069580078125,-1.333333333333334,0,0,0,0,1,0,0,1,0,1,0,0,1,0,81
82,0,119,122,4,3,3,1,2,0,1,2,0.43535,0,0,7301.6,7302.1,7302.6,7303.6,7304.6,102,1.3697916666666643,1.13214111328125,-0.3333333333333339,0.5,1.3333333333333333,1.5,-1.3697916666666643,-1.13214111328125,-0.3333333333333339,0,0,0,0,0,1,0,1,0,0,1,0,1,0,82
83,0,122,124,3,2,2,1,3,0,1,2,0.65845,0,0,7305.6,7306.1,7306.8,7307.8,7308.9,102,0.3385416666666643,0.009033203125,-1.333333333333333,-0.5,0.33333333333333326,0.6111111111111112,-0.3385416666666643,-0.009033203125,-1.333333333333333,0,0,0,0,1,0,0,1,0,1,0,0,1,0,83
84,1,124,124,2,3,4,2,0,1,1,3,0.30445,0,0,7309.9,7310.4,7310.7,7311.7,7312.7,102,0.5240478515625,0.6443023681640625,-1.0,1.5,0.33333333333333326,0.75,-0.5240478515625,-0.6443023681640625,-1.0,0,0,0,0,0,0,1,1,0,0,0,1,0,1,84
85,1,124,124,3,4,2,2,1,1,1,3,0.32523,0,0,7313.8,7314.3,7314.6,7315.6,7316.7,102,-1.30126953125,-1.14093017578125,-3.0,-0.5,-0.6666666666666667,-0.25,-1.30126953125,-1.14093017578125,-3.0,0,0,0,0,1,0,0,1,0,1,0,0,1,0,85
86,1,124,124,4,5,1,2,2,1,1,3,0.41653,0,0,7317.7,7318.2,7318.6,7319.6,7320.7,102,-2.068359375,-1.7818603515625,-4.0,-1.5,-1.1666666666666667,-0.75,-2.068359375,-1.7818603515625,-4.0,0,0,0,1,0,0,0,1,1,0,0,0,0,1,86
87,0,124,128,5,3,4,2,3,1,1,3,0.8565,0,0,7321.7,7322.2,7323.1,7324.1,7325.1,102,1.2578125,1.61474609375,-1.0,1.5,0.33333333333333326,0.75,-1.2578125,-1.61474609375,-1.0,0,0,0,0,0,0,1,1,0,0,0,1,0,1,87
88,1,128,128,3,4,2,2,0,1,1,3,0.55106,0,0,7326.1,7326.6,7327.2,7328.2,7329.2,102,-1.178548177083334,-1.1503143310546875,-1.71875,-0.5,-0.6666666666666667,-0.25,-1.178548177083334,-1.1503143310546875,-1.71875,0,0,0,0,1,0,0,1,0,1,0,0,1,0,88
89,1,128,128,4,5,3,2,1,1,1,3,0.64186,0,0,7330.2,7330.8,7331.4,7332.4,7333.5,102,0.14290364583333393,0.199371337890625,-0.625,0.5,-0.16666666666666674,0.25,-0.14290364583333393,-0.199371337890625,-0.625,0,0,0,0,0,1,0,1,0,0,1,0,1,0,89
90,1,128,128,5,6,2,2,2,1,1,3,0.54438,0,0,7334.5,7335.0,7335.6,7336.6,7337.6,102,-0.4661458333333339,-0.415283203125,-1.5,-0.5,-0.6666666666666667,-0.25,-0.4661458333333339,-0.415283203125,-1.5,0,0,0,0,1,0,0,1,0,1,0,0,1,0,90
91,0,128,132,6,4,4,2,3,1,1,3,0.40310999999999997,0,0,7338.6,7339.1,7339.5,7340.6,7341.6,102,2.463541666666668,2.50146484375,0.6666666666666679,1.5,0.33333333333333326,0.75,-2.463541666666668,-2.50146484375,-0.6666666666666679,1,0,0,0,0,0,0,0,0,0,0,1,0,1,91
92,0,132,135,4,2,3,2,0,1,0,1,0.68382,0,0,7342.6,7343.1,7343.8,7344.8,7345.8,102,-0.09375,0.1374969482421875,-0.10416666666666785,0.5,-0.16666666666666674,-0.16666666666666674,-0.09375,-0.1374969482421875,-0.10416666666666785,0,0,0,0,0,1,0,1,0,0,1,0,1,0,92
93,1,135,135,2,3,3,2,1,1,0,1,0.27318000000000003,0,0,7346.9,7347.4,7347.7,7348.7,7349.7,102,-1.0312500000000018,-0.508087158203125,-2.0,0.5,-0.16666666666666674,-0.25,-1.0312500000000018,-0.508087158203125,-2.0,0,0,0,0,0,1,0,1,0,0,1,0,1,0,93
94,1,135,135,3,4,3,2,2,1,0,1,0.47123999999999994,0,0,7350.7,7351.2,7351.7,7352.7,7353.7,102,-1.0312500000000018,-0.3441162109375,-2.0,0.5,-0.16666666666666674,-0.375,-1.0312500000000018,-0.3441162109375,-2.0,0,0,0,0,0,1,0,1,0,0,1,0,1,0,94
95,0,135,139,4,2,4,2,3,1,0,1,0.62107,0,0,7354.8,7355.3,7355.9,7356.9,7357.9,102,-0.031250000000001776,0.87451171875,-1.0,1.5,0.33333333333333326,-0.08333333333333348,-0.031250000000001776,-0.87451171875,-1.0,0,0,0,0,0,0,1,1,0,0,0,1,0,1,95
96,1,139,139,2,3,2,1,0,0,1,2,0.6530699999999999,0,0,7359.0,7359.5,7360.1,7361.2,7362.2,102,-0.5781249999999982,-0.42052459716796875,-1.375,-0.5,0.33333333333333326,0.33333333333333326,-0.5781249999999982,-0.42052459716796875,-1.375,0,0,0,0,1,0,0,1,0,1,0,0,1,0,96
97,1,139,139,3,4,3,1,1,0,1,2,0.53185,0,0,7363.2,7363.7,7364.3,7365.3,7366.3,102,0.8430989583333321,0.9709930419921875,-0.3333333333333339,0.5,1.3333333333333333,1.409090909090909,-0.8430989583333321,-0.9709930419921875,-0.3333333333333339,0,0,0,0,0,1,0,1,0,0,1,0,1,0,97
98,1,139,139,4,5,3,1,2,0,1,2,0.59118,0,0,7367.3,7367.8,7368.4,7369.4,7370.5,102,1.3697916666666643,1.13214111328125,-0.3333333333333339,0.5,1.3333333333333333,1.5,-1.3697916666666643,-1.13214111328125,-0.3333333333333339,0,0,0,0,0,1,0,1,0,0,1,0,1,0,98
99,1,139,139,5,6,2,1,3,0,1,2,0.93658,0,0,7371.5,7372.0,7372.9,7374.0,7375.0,102,0.46354166666666785,0.50146484375,-1.3333333333333321,-0.5,0.33333333333333326,0.6111111111111112,-0.46354166666666785,-0.50146484375,-1.3333333333333321,0,0,0,0,1,0,0,1,0,1,0,0,1,0,99
100,0,139,143,6,4,4,2,0,1,1,3,0.70772,0,0,7376.0,7376.5,7377.2,7378.2,7379.3,102,2.5855712890625036,2.509246826171875,1.875,1.5,0.33333333333333326,0.75,-2.5855712890625036,-2.509246826171875,-1.875,1,0,0,0,0,0,0,0,0,0,0,1,0,1,100
101,1,143,143,4,5,2,2,1,1,1,3,0.68842,0,0,7380.3,7380.8,7381.5,7382.5,7383.5,102,-0.8570963541666661,-0.800628662109375,-1.625,-0.5,-0.6666666666666667,-0.25,-0.8570963541666661,-0.800628662109375,-1.625,0,0,0,0,1,0,0,1,0,1,0,0,1,0,101
102,0,143,147,5,3,4,2,2,1,1,3,0.52574,0,0,7384.5,7385.1,7385.6,7386.6,7387.6,102,1.533854166666666,1.584716796875,0.5,1.5,0.33333333333333326,0.75,-1.533854166666666,-1.584716796875,-0.5,0,0,0,0,0,0,1,1,0,0,0,1,0,1,102
103,1,147,147,3,4,1,2,3,1,1,3,0.41712,0,0,7388.7,7389.2,7389.6,7390.6,7391.6,102,-2.3281250000000018,-2.16259765625,-4.0,-1.5,-1.1666666666666667,-0.75,-2.3281250000000018,-2.16259765625,-4.0,0,0,0,1,0,0,0,1,1,0,0,0,0,1,103
104,1,147,147,4,5,1,2,0,1,0,1,0.36914,0,0,7392.7,7393.2,7393.6,7394.6,7395.6,102,-2.0937499999999982,-1.8625030517578125,-2.104166666666668,-1.5,-1.1666666666666667,-1.1666666666666667,-2.0937499999999982,-1.8625030517578125,-2.104166666666668,0,0,0,1,0,0,0,1,1,0,0,0,0,1,104
105,1,147,147,5,6,2,2,1,1,0,1,0.5311100000000001,0,0,7396.6,7397.1,7397.7,7398.7,7399.7,102,-0.6875,-0.4709625244140625,-0.7083333333333339,-0.5,-0.6666666666666667,-0.75,-0.6875,-0.4709625244140625,-0.7083333333333339,0,0,0,0,1,0,0,1,0,1,0,0,1,0,105
106,0,147,149,6,4,2,2,2,1,0,1,1.0544,0,0,7400.7,7401.2,7402.3,7403.3,7404.3,102,0.25,0.46026611328125,0.16666666666666607,-0.5,-0.6666666666666667,-0.875,-0.25,-0.46026611328125,-0.16666666666666607,1,0,0,0,0,0,0,0,0,1,0,0,1,0,106
107,0,149,153,4,2,4,2,3,1,0,1,0.81323,0,0,7405.4,7405.9,7406.7,7407.7,7408.7,102,-0.031250000000001776,0.87451171875,-1.0,1.5,0.33333333333333326,-0.08333333333333348,-0.031250000000001776,-0.87451171875,-1.0,0,0,0,0,0,0,1,1,0,0,0,1,0,1,107
108,1,153,153,2,3,1,1,0,0,0,0,0.62912,0,0,7409.8,7410.3,7410.9,7411.9,7413.0,102,-1.98583984375,-1.6644287109375,-2.375,-1.5,-0.6666666666666667,-1.5,-1.98583984375,-1.6644287109375,-2.375,0,0,0,1,0,0,0,1,1,0,0,0,0,1,108
109,1,153,153,3,4,2,1,1,0,0,0,0.39652,0,0,7414.0,7414.5,7414.9,7415.9,7416.9,102,-0.802734375,-0.307891845703125,-1.333333333333334,-0.5,0.33333333333333326,-0.5,-0.802734375,-0.307891845703125,-1.333333333333334,0,0,0,0,1,0,0,1,0,1,0,0,1,0,109
110,0,153,157,4,3,4,1,2,0,0,0,0.72518,0,0,7418.0,7418.5,7419.2,7420.2,7421.3,102,1.453125,1.96807861328125,0.6666666666666661,1.5,2.333333333333333,1.5,-1.453125,-1.96807861328125,-0.6666666666666661,0,0,0,0,0,0,1,1,0,0,0,1,0,1,110
111,0,157,160,3,2,3,1,3,0,0,0,1.8486,0,0,7422.3,7422.8,7424.7,7425.7,7426.7,102,0.03125,0.796142578125,-0.33333333333333304,0.5,1.3333333333333333,0.5,-0.03125,-0.796142578125,-0.33333333333333304,0,0,0,0,0,1,0,1,0,0,1,0,1,0,111
112,0,160,163,2,1,3,1,0,0,1,2,0.83116,0,0,7427.7,7428.2,7429.1,7430.1,7431.1,102,0.4218750000000018,0.5794754028320312,-0.375,0.5,1.3333333333333333,1.3333333333333333,-0.4218750000000018,-0.5794754028320312,-0.375,0,0,0,0,0,1,0,1,0,0,1,0,1,0,112
113,1,163,163,1,2,1,1,1,0,1,2,0.66251,0,0,7432.1,7432.6,7433.3,7434.3,7435.4,102,-1.9993489583333321,-1.812042236328125,-2.5,-1.5,-0.6666666666666667,-0.590909090909091,-1.9993489583333321,-1.812042236328125,-2.5,0,0,0,1,0,0,0,1,1,0,0,0,0,1,113
114,1,163,163,2,3,1,1,2,0,1,2,0.42043,0,0,7436.4,7436.9,7437.3,7438.3,7439.4,102,-1.498697916666666,-1.12408447265625,-2.333333333333334,-1.5,-0.6666666666666667,-0.5,-1.498697916666666,-1.12408447265625,-2.333333333333334,0,0,0,1,0,0,0,1,1,0,0,0,0,1,114
115,1,163,163,3,4,1,1,3,0,1,2,0.50044,0,0,7440.4,7440.9,7441.4,7442.4,7443.4,102,-0.6614583333333357,-0.990966796875,-2.333333333333333,-1.5,-0.6666666666666667,-0.38888888888888884,-0.6614583333333357,-0.990966796875,-2.333333333333333,0,0,0,1,0,0,0,1,1,0,0,0,0,1,115
116,1,163,163,4,5,1,2,0,1,1,3,0.40909,0,0,7444.5,7445.0,7445.4,7446.4,7447.4,102,-1.7720540364583357,-1.7949142456054688,-2.104166666666668,-1.5,-1.1666666666666667,-0.75,-1.7720540364583357,-1.7949142456054688,-2.104166666666668,0,0,0,1,0,0,0,1,1,0,0,0,0,1,116
117,1,163,163,5,6,1,2,1,1,1,3,0.49728,0,0,7448.5,7449.0,7449.5,7450.5,7451.5,102,-1.3238932291666679,-1.403900146484375,-1.708333333333334,-1.5,-1.1666666666666667,-0.75,-1.3238932291666679,-1.403900146484375,-1.708333333333334,0,0,0,1,0,0,0,1,1,0,0,0,0,1,117
118,0,163,167,6,4,4,2,2,1,1,3,0.37389,0,0,7452.5,7453.1,7453.4,7454.5,7455.5,102,2.9583333333333304,2.546875,2.166666666666666,1.5,0.33333333333333326,0.75,-2.9583333333333304,-2.546875,-2.166666666666666,1,0,0,0,0,0,0,0,0,0,0,1,0,1,118
119,0,167,170,4,2,3,2,3,1,1,3,2.9758,0,0,7456.5,7457.0,7460.0,7461.0,7462.0,102,-0.0052083333333339255,0.175048828125,-2.0,0.5,-0.16666666666666674,0.25,-0.0052083333333339255,-0.175048828125,-2.0,0,0,0,0,0,1,0,1,0,0,1,0,1,0,119
120,1,170,170,2,3,2,2,0,1,0,1,0.41721,0,0,7463.1,7463.6,7464.0,7465.0,7466.0,102,-1.8604736328125,-1.517425537109375,-3.0,-0.5,-0.6666666666666667,-0.6666666666666667,-1.8604736328125,-1.517425537109375,-3.0,0,0,0,0,1,0,0,1,0,1,0,0,1,0,120
121,1,170,170,3,4,3,2,1,1,0,1,1.0891,0,0,7467.1,7467.6,7468.7,7469.7,7470.7,102,-0.81396484375,-0.3565673828125,-2.0,0.5,-0.16666666666666674,-0.25,-0.81396484375,-0.3565673828125,-2.0,0,0,0,0,0,1,0,1,0,0,1,0,1,0,121
122,1,170,170,4,5,1,2,2,1,0,1,0.50239,0,0,7471.7,7472.2,7472.8,7473.8,7474.8,102,-2.751953125,-2.14208984375,-4.0,-1.5,-1.1666666666666667,-1.375,-2.751953125,-2.14208984375,-4.0,0,0,0,1,0,0,0,1,1,0,0,0,0,1,122
123,0,170,174,5,3,4,2,3,1,0,1,0.45111,0,0,7475.8,7476.3,7476.8,7477.8,7478.8,102,0.33072916666666785,1.2158203125,-1.0,1.5,0.33333333333333326,-0.08333333333333348,-0.33072916666666785,-1.2158203125,-1.0,0,0,0,0,0,0,1,1,0,0,0,1,0,1,123
124,0,174,177,3,2,3,1,0,0,0,0,1.2898,0,0,7479.8,7480.4,7481.7,7482.7,7483.7,102,0.2710774739583357,0.6498870849609375,-0.010416666666667851,0.5,1.3333333333333333,0.5,-0.2710774739583357,-0.6498870849609375,-0.010416666666667851,0,0,0,0,0,1,0,1,0,0,1,0,1,0,124
125,1,177,177,2,3,2,1,1,0,0,0,0.4071,0,0,7484.7,7485.2,7485.6,7486.7,7487.7,102,-1.0081380208333357,-0.63458251953125,-1.3750000000000009,-0.5,0.33333333333333326,-0.5,-1.0081380208333357,-0.63458251953125,-1.3750000000000009,0,0,0,0,1,0,0,1,0,1,0,0,1,0,125
126,1,177,177,3,4,2,1,2,0,0,0,0.53591,0,0,7488.7,7489.2,7489.8,7490.8,7491.8,102,-0.8385416666666679,-0.2615966796875,-1.333333333333333,-0.5,0.33333333333333326,-0.5,-0.8385416666666679,-0.2615966796875,-1.333333333333333,0,0,0,0,1,0,0,1,0,1,0,0,1,0,126
127,0,177,181,4,3,4,1,3,0,0,0,0.6510699999999999,0,0,7492.8,7493.3,7494.0,7495.0,7496.0,102,1.393229166666666,2.01416015625,0.6666666666666661,1.5,2.333333333333333,1.5,-1.393229166666666,-2.01416015625,-0.6666666666666661,0,0,0,0,0,0,1,1,0,0,0,1,0,1,127
128,1,181,181,3,4,3,1,0,0,0,0,0.76989,0,0,7497.0,7497.6,7498.3,7499.4,7500.4,102,0.2710774739583357,0.6498870849609375,-0.010416666666667851,0.5,1.3333333333333333,0.5,-0.2710774739583357,-0.6498870849609375,-0.010416666666667851,0,0,0,0,0,1,0,1,0,0,1,0,1,0,128
129,1,181,181,4,5,1,1,1,0,0,0,0.43573,0,0,7501.4,7501.9,7502.4,7503.4,7504.4,102,-1.4537760416666643,-1.065643310546875,-1.8333333333333321,-1.5,-0.6666666666666667,-1.5,-1.4537760416666643,-1.065643310546875,-1.8333333333333321,0,0,0,1,0,0,0,1,1,0,0,0,0,1,129
130,1,181,181,5,6,1,1,2,0,0,0,0.7470600000000001,0,0,7505.4,7505.9,7506.7,7507.7,7508.7,102,-1.0690104166666643,-0.7393798828125,-1.5000000000000018,-1.5,-0.6666666666666667,-1.5,-1.0690104166666643,-0.7393798828125,-1.5000000000000018,0,0,0,1,0,0,0,1,1,0,0,0,0,1,130
131,0,181,183,6,5,2,1,3,0,0,0,0.39786,0,0,7509.7,7510.3,7510.7,7511.7,7512.7,102,0.9375,1.20166015625,0.3333333333333339,-0.5,0.33333333333333326,-0.5,-0.9375,-1.20166015625,-0.3333333333333339,1,0,0,0,0,0,0,0,0,1,0,0,1,0,131
132,0,183,187,5,4,4,1,0,0,1,2,0.26250999999999997,0,0,7513.7,7514.2,7514.5,7515.5,7516.6,102,2.159830729166668,2.31060791015625,1.7916666666666679,1.5,2.333333333333333,2.333333333333333,-2.159830729166668,-2.31060791015625,-1.7916666666666679,0,0,0,0,0,0,1,1,0,0,0,1,0,1,132
133,0,187,191,4,3,4,1,1,0,1,2,0.44448000000000004,0,0,7517.6,7518.1,7518.6,7519.6,7520.6,102,1.8196614583333321,2.080810546875,1.1666666666666679,1.5,2.333333333333333,2.409090909090909,-1.8196614583333321,-2.080810546875,-1.1666666666666679,0,0,0,0,0,0,1,1,0,0,0,1,0,1,133
134,1,191,191,3,4,2,1,2,0,1,2,0.6192,0,0,7521.6,7522.1,7522.8,7523.8,7524.8,102,-0.3359374999999982,-0.068115234375,-1.333333333333333,-0.5,0.33333333333333326,0.5,-0.3359374999999982,-0.068115234375,-1.333333333333333,0,0,0,0,1,0,0,1,0,1,0,0,1,0,134
135,1,191,191,4,5,1,1,3,0,1,2,0.5391,0,0,7525.8,7526.3,7526.9,7527.9,7528.9,102,-1.549479166666666,-0.720703125,-2.333333333333334,-1.5,-0.6666666666666667,-0.38888888888888884,-1.549479166666666,-0.720703125,-2.333333333333334,0,0,0,1,0,0,0,1,1,0,0,0,0,1,135
136,1,191,191,5,6,2,2,0,1,1,3,0.9985299999999999,0,0,7529.9,7530.4,7531.5,7532.5,7533.5,102,-0.56396484375,-0.377685546875,-0.5104166666666679,-0.5,-0.6666666666666667,-0.25,-0.56396484375,-0.377685546875,-0.5104166666666679,0,0,0,0,1,0,0,1,0,1,0,0,1,0,136
137,0,191,195,6,4,4,2,1,1,1,3,0.31908000000000003,0,0,7534.5,7535.0,7535.4,7536.4,7537.4,102,2.04541015625,2.63018798828125,2.958333333333332,1.5,0.33333333333333326,0.75,-2.04541015625,-2.63018798828125,-2.958333333333332,1,0,0,0,0,0,0,0,0,0,0,1,0,1,137
138,0,195,198,4,2,3,2,2,1,1,3,0.5072,0,0,7538.4,7538.9,7539.4,7540.5,7541.5,102,-0.068359375,0.2181396484375,-2.0,0.5,-0.16666666666666674,0.25,-0.068359375,-0.2181396484375,-2.0,0,0,0,0,0,1,0,1,0,0,1,0,1,0,138
139,1,198,198,2,3,2,2,3,1,1,3,0.55198,0,0,7542.5,7543.0,7543.6,7544.6,7545.6,102,-1.7890625,-1.35693359375,-3.0,-0.5,-0.6666666666666667,-0.25,-1.7890625,-1.35693359375,-3.0,0,0,0,0,1,0,0,1,0,1,0,0,1,0,139
140,1,198,198,3,4,3,2,0,1,0,1,2.3865,0,0,7546.6,7547.1,7549.5,7550.6,7551.6,102,-0.3671875,-0.23163604736328125,-0.71875,0.5,-0.16666666666666674,-0.16666666666666674,-0.3671875,-0.23163604736328125,-0.71875,0,0,0,0,0,1,0,1,0,0,1,0,1,0,140
141,1,198,198,4,5,2,2,1,1,0,1,0.49195,0,0,7552.6,7553.1,7553.6,7554.6,7555.7,102,-1.15625,-0.9632720947265625,-1.625,-0.5,-0.6666666666666667,-0.75,-1.15625,-0.9632720947265625,-1.625,0,0,0,0,1,0,0,1,0,1,0,0,1,0,141
142,0,198,202,5,3,4,2,2,1,0,1,0.36853,0,0,7556.7,7557.2,7557.6,7558.6,7559.6,102,1.1875,1.42138671875,0.5,1.5,0.33333333333333326,0.125,-1.1875,-1.42138671875,-0.5,0,0,0,0,0,0,1,1,0,0,0,1,0,1,142
143,1,202,202,3,4,1,2,3,1,0,1,0.37843000000000004,0,0,7560.6,7561.1,7561.5,7562.6,7563.6,102,-3.684895833333332,-2.594482421875,-4.0,-1.5,-1.1666666666666667,-1.5833333333333335,-3.684895833333332,-2.594482421875,-4.0,0,0,0,1,0,0,0,1,1,0,0,0,0,1,143
0,1,0,0,3,4,1,1,0,0,1,2,1.0855,0,0,2295.0,2295.5,2296.6,2297.7,2298.7,103,-1.376953125,-1.21881103515625,-2.010416666666668,-1.5,-0.6666666666666667,-0.6666666666666667,-1.376953125,-1.21881103515625,-2.010416666666668,0,0,0,1,0,0,0,1,1,0,0,0,0,1,0
1,1,0,0,4,5,2,1,1,0,1,2,1.4842,0,0,2299.7,2300.2,2301.7,2302.8,2303.8,103,-0.18033854166666785,0.080810546875,-0.8333333333333321,-0.5,0.33333333333333326,0.40909090909090895,-0.18033854166666785,-0.080810546875,-0.8333333333333321,0,0,0,0,1,0,0,1,0,1,0,0,1,0,1
2,0,0,4,5,4,4,1,2,0,1,2,0.63731,0,0,2304.8,2305.3,2306.0,2307.0,2308.0,103,1.975260416666666,2.45947265625,1.4999999999999982,1.5,2.333333333333333,2.5,-1.975260416666666,-2.45947265625,-1.4999999999999982,0,0,0,0,0,0,1,1,0,0,0,1,0,1,2
3,0,4,8,4,3,4,1,3,0,1,2,0.68821,0,0,2309.0,2309.6,2310.3,2311.3,2312.3,103,1.450520833333334,2.279296875,0.6666666666666661,1.5,2.333333333333333,2.611111111111111,-1.450520833333334,-2.279296875,-0.6666666666666661,0,0,0,0,0,0,1,1,0,0,0,1,0,1,3
4,1,8,8,3,4,1,2,0,1,1,3,0.9244600000000001,0,0,2313.3,2313.8,2314.8,2315.8,2316.8,103,-2.178548177083334,-2.1503143310546875,-2.718750000000001,-1.5,-1.1666666666666667,-0.75,-2.178548177083334,-2.1503143310546875,-2.718750000000001,0,0,0,1,0,0,0,1,1,0,0,0,0,1,4
5,1,8,8,4,5,1,2,1,1,1,3,0.69252,0,0,2317.8,2318.3,2319.0,2320.0,2321.1,103,-1.857096354166666,-1.800628662109375,-2.625000000000001,-1.5,-1.1666666666666667,-0.75,-1.857096354166666,-1.800628662109375,-2.625000000000001,0,0,0,1,0,0,0,1,1,0,0,0,0,1,5
6,1,8,8,5,6,2,2,2,1,1,3,0.9011600000000001,0,0,2322.1,2322.6,2323.5,2324.5,2325.5,103,-0.4661458333333339,-0.415283203125,-1.5,-0.5,-0.6666666666666667,-0.25,-0.4661458333333339,-0.415283203125,-1.5,0,0,0,0,1,0,0,1,0,1,0,0,1,0,6
7,0,8,11,6,4,3,2,3,1,1,3,0.48891,0,0,2326.6,2327.1,2327.6,2328.6,2329.6,103,1.4635416666666679,1.50146484375,-0.33333333333333215,0.5,-0.16666666666666674,0.25,-1.4635416666666679,-1.50146484375,-0.33333333333333215,1,0,0,0,0,0,0,0,0,0,1,0,1,0,7
8,1,11,11,4,5,1,2,0,1,0,1,0.55925,0,0,2330.6,2331.1,2331.7,2332.7,2333.7,103,-2.0937499999999982,-1.8625030517578125,-2.104166666666668,-1.5,-1.1666666666666667,-1.1666666666666667,-2.0937499999999982,-1.8625030517578125,-2.104166666666668,0,0,0,1,0,0,0,1,1,0,0,0,0,1,8
9,0,11,15,5,3,4,2,1,1,0,1,0.45838999999999996,0,0,2334.8,2335.3,2335.7,2336.8,2337.8,103,1.3125,1.5290374755859375,1.291666666666666,1.5,0.33333333333333326,0.25,-1.3125,-1.5290374755859375,-1.291666666666666,0,0,0,0,0,0,1,1,0,0,0,1,0,1,9
10,1,15,15,3,4,2,2,2,1,0,1,0.60197,0,0,2338.8,2339.3,2339.9,2340.9,2342.0,103,-2.0312500000000018,-1.3441162109375,-3.0,-0.5,-0.6666666666666667,-0.875,-2.0312500000000018,-1.3441162109375,-3.0,0,0,0,0,1,0,0,1,0,1,0,0,1,0,10
11,1,15,15,4,5,1,2,3,1,0,1,0.73755,0,0,2343.0,2343.5,2344.2,2345.3,2346.3,103,-3.0312500000000018,-2.12548828125,-4.0,-1.5,-1.1666666666666667,-1.5833333333333335,-3.0312500000000018,-2.12548828125,-4.0,0,0,0,1,0,0,0,1,1,0,0,0,0,1,11
12,0,15,19,5,4,4,1,0,0,1,2,0.63484,0,0,2347.3,2347.8,2348.5,2349.5,2350.5,103,2.159830729166668,2.31060791015625,1.7916666666666679,1.5,2.333333333333333,2.333333333333333,-2.159830729166668,-2.31060791015625,-1.7916666666666679,0,0,0,0,0,0,1,1,0,0,0,1,0,1,12
13,1,19,19,4,5,1,1,1,0,1,2,0.5946100000000001,0,0,2351.5,2352.0,2352.6,2353.7,2354.7,103,-1.1803385416666679,-0.919189453125,-1.8333333333333321,-1.5,-0.6666666666666667,-0.590909090909091,-1.1803385416666679,-0.919189453125,-1.8333333333333321,0,0,0,1,0,0,0,1,1,0,0,0,0,1,13
14,1,19,19,5,6,1,1,2,0,1,2,0.49635,0,0,2355.7,2356.2,2356.7,2357.7,2358.8,103,-1.024739583333334,-0.54052734375,-1.5000000000000018,-1.5,-0.6666666666666667,-0.5,-1.024739583333334,-0.54052734375,-1.5000000000000018,0,0,0,1,0,0,0,1,1,0,0,0,0,1,14
15,0,19,21,6,5,2,1,3,0,1,2,0.53672,0,0,2359.8,2360.3,2360.8,2361.9,2362.9,103,1.807291666666666,1.33544921875,0.3333333333333339,-0.5,0.33333333333333326,0.6111111111111112,-1.807291666666666,-1.33544921875,-0.3333333333333339,1,0,0,0,0,0,0,0,0,1,0,0,1,0,15
16,0,21,25,5,3,4,2,0,1,1,3,0.66171,0,0,2363.9,2364.4,2365.1,2366.1,2367.1,103,1.43603515625,1.622314453125,1.4895833333333321,1.5,0.33333333333333326,0.75,-1.43603515625,-1.622314453125,-1.4895833333333321,0,0,0,0,0,0,1,1,0,0,0,1,0,1,16
17,1,25,25,3,4,1,2,1,1,1,3,0.49709,0,0,2368.1,2368.7,2369.2,2370.2,2371.2,103,-2.30126953125,-2.14093017578125,-4.0,-1.5,-1.1666666666666667,-0.75,-2.30126953125,-2.14093017578125,-4.0,0,0,0,1,0,0,0,1,1,0,0,0,0,1,17
18,0,25,28,4,2,3,2,2,1,1,3,0.5895100000000001,0,0,2372.2,2372.7,2373.3,2374.4,2375.4,103,-0.068359375,0.2181396484375,-2.0,0.5,-0.16666666666666674,0.25,-0.068359375,-0.2181396484375,-2.0,0,0,0,0,0,1,0,1,0,0,1,0,1,0,18
19,0,28,32,2,0,4,2,3,1,1,3,0.6127600000000001,0,0,2376.4,2376.9,2377.5,2378.6,2379.6,103,0.2109375,0.64306640625,-1.0,1.5,0.33333333333333326,0.75,-0.2109375,-0.64306640625,-1.0,0,0,0,0,0,0,1,1,0,0,0,1,0,1,19
20,1,32,32,0,1,3,2,0,1,0,1,0.7847,0,0,2380.6,2381.1,2381.9,2382.9,2383.9,103,-1.5442708333333321,-1.2416229248046875,-1.666666666666667,0.5,-0.16666666666666674,-0.16666666666666674,-1.5442708333333321,-1.2416229248046875,-1.666666666666667,0,0,1,0,0,0,0,0,0,0,1,0,1,0,20
21,1,32,32,1,2,3,2,1,1,0,1,0.5173800000000001,0,0,2385.0,2385.5,2386.0,2387.0,2388.0,103,-2.96875,-2.3812713623046875,-3.3333333333333335,0.5,-0.16666666666666674,-0.25,-2.96875,-2.3812713623046875,-3.3333333333333335,0,0,1,0,0,0,0,0,0,0,1,0,1,0,21
22,1,32,32,2,3,2,2,2,1,0,1,0.42551000000000005,0,0,2389.1,2389.6,2390.0,2391.0,2392.0,103,-2.684895833333332,-1.69586181640625,-3.0,-0.5,-0.6666666666666667,-0.875,-2.684895833333332,-1.69586181640625,-3.0,0,0,0,0,1,0,0,1,0,1,0,0,1,0,22
23,1,32,32,3,4,1,2,3,1,0,1,1.1746,0,0,2393.1,2393.6,2394.8,2395.8,2396.8,103,-3.684895833333332,-2.594482421875,-4.0,-1.5,-1.1666666666666667,-1.5833333333333335,-3.684895833333332,-2.594482421875,-4.0,0,0,0,1,0,0,0,1,1,0,0,0,0,1,23
24,0,32,35,4,3,3,1,0,0,0,0,0.62656,0,0,2397.8,2398.3,2399.0,2400.0,2401.0,103,0.5869140625,0.9045639038085938,0.24999999999999822,0.5,1.3333333333333333,0.5,-0.5869140625,-0.9045639038085938,-0.24999999999999822,0,0,0,0,0,1,0,1,0,0,1,0,1,0,24
25,0,35,39,3,2,4,1,1,0,0,0,0.47268000000000004,0,0,2402.0,2402.5,2403.0,2404.0,2405.0,103,1.197265625,1.692108154296875,0.6666666666666661,1.5,2.333333333333333,1.5,-1.197265625,-1.692108154296875,-0.6666666666666661,0,0,0,0,0,0,1,1,0,0,0,1,0,1,25
26,0,39,43,2,1,4,1,2,0,0,0,0.52061,0,0,2406.1,2406.6,2407.1,2408.1,2409.1,103,0.8828125,1.4161376953125,0.6666666666666661,1.5,2.333333333333333,1.5,-0.8828125,-1.4161376953125,-0.6666666666666661,0,0,0,0,0,0,1,1,0,0,0,1,0,1,26
27,0,43,47,1,0,4,1,3,0,0,0,0.47944,0,0,2410.2,2410.7,2411.2,2412.2,2413.2,103,0.46875,1.0361328125,0.6666666666666665,1.5,2.333333333333333,1.5,-0.46875,-1.0361328125,-0.6666666666666665,0,0,0,0,0,0,1,1,0,0,0,1,0,1,27
28,1,47,47,0,1,4,1,0,0,0,0,0.64118,0,0,2414.2,2414.7,2415.4,2416.4,2417.4,103,-1.8201497395833321,-1.6787872314453125,-1.833333333333333,1.5,2.333333333333333,1.5,-1.8201497395833321,-1.6787872314453125,-1.833333333333333,0,1,0,0,0,0,0,0,0,0,0,1,0,1,28
29,0,47,50,1,0,3,1,1,0,0,0,0.66496,0,0,2418.4,2419.0,2419.6,2420.7,2421.7,103,-0.337890625,-0.04193115234375,-0.5,0.5,1.3333333333333333,0.5,-0.337890625,-0.04193115234375,-0.5,0,0,0,0,0,1,0,1,0,0,1,0,1,0,29
30,1,50,50,0,1,3,1,2,0,0,0,0.59213,0,0,2422.7,2423.2,2423.8,2424.8,2425.8,103,-1.8333333333333321,-1.65869140625,-1.8333333333333333,0.5,1.3333333333333333,0.5,-1.8333333333333321,-1.65869140625,-1.8333333333333333,0,1,0,0,0,0,0,0,0,0,1,0,1,0,30
31,0,50,53,1,0,3,1,3,0,0,0,0.6272399999999999,0,0,2426.9,2427.4,2428.0,2429.0,2430.0,103,-0.53125,0.0361328125,-0.3333333333333335,0.5,1.3333333333333333,0.5,-0.53125,-0.0361328125,-0.3333333333333335,0,0,0,0,0,1,0,1,0,0,1,0,1,0,31
32,1,53,53,0,1,2,1,0,0,0,0,0.73423,0,0,2431.1,2431.6,2432.3,2433.3,2434.4,103,-1.8201497395833321,-1.6787872314453125,-1.833333333333333,-0.5,0.33333333333333326,-0.5,-1.8201497395833321,-1.6787872314453125,-1.833333333333333,0,1,0,0,0,0,0,0,0,1,0,0,1,0,32
33,1,53,53,1,2,1,1,1,0,0,0,0.58036,0,0,2435.4,2435.9,2436.5,2437.5,2438.5,103,-2.337890625,-2.04193115234375,-2.5,-1.5,-0.6666666666666667,-1.5,-2.337890625,-2.04193115234375,-2.5,0,0,0,1,0,0,0,1,1,0,0,0,0,1,33
34,0,53,56,2,1,3,1,2,0,0,0,0.7843100000000001,0,0,2439.5,2440.1,2440.9,2441.9,2442.9,103,-0.1171875,0.4161376953125,-0.3333333333333339,0.5,1.3333333333333333,0.5,-0.1171875,-0.4161376953125,-0.3333333333333339,0,0,0,0,0,1,0,1,0,0,1,0,1,0,34
35,1,56,56,1,2,2,1,3,0,0,0,0.47657,0,0,2443.9,2444.4,2444.9,2445.9,2447.0,103,-1.53125,-0.9638671875,-1.3333333333333335,-0.5,0.33333333333333326,-0.5,-1.53125,-0.9638671875,-1.3333333333333335,0,0,0,0,1,0,0,1,0,1,0,0,1,0,35
36,1,56,56,2,3,2,1,0,0,1,2,0.5886399999999999,0,0,2448.0,2448.5,2449.1,2450.1,2451.1,103,-0.5781249999999982,-0.42052459716796875,-1.375,-0.5,0.33333333333333326,0.33333333333333326,-0.5781249999999982,-0.42052459716796875,-1.375,0,0,0,0,1,0,0,1,0,1,0,0,1,0,36
37,0,56,60,3,2,4,1,1,0,1,2,0.59934,0,0,2452.1,2452.7,2453.3,2454.3,2455.3,103,1.8430989583333321,1.9709930419921875,0.6666666666666661,1.5,2.333333333333333,2.409090909090909,-1.8430989583333321,-1.9709930419921875,-0.6666666666666661,0,0,0,0,0,0,1,1,0,0,0,1,0,1,37
38,0,60,63,2,1,3,1,2,0,1,2,0.73507,0,0,2456.3,2456.8,2457.6,2458.6,2459.6,103,0.5013020833333339,0.87591552734375,-0.3333333333333339,0.5,1.3333333333333333,1.5,-0.5013020833333339,-0.87591552734375,-0.3333333333333339,0,0,0,0,0,1,0,1,0,0,1,0,1,0,38
39,1,63,63,1,2,1,1,3,0,1,2,0.42573,0,0,2460.6,2461.2,2461.6,2462.6,2463.6,103,-2.333333333333333,-1.252685546875,-2.3333333333333335,-1.5,-0.6666666666666667,-0.38888888888888884,-2.333333333333333,-1.252685546875,-2.3333333333333335,0,0,0,1,0,0,0,1,1,0,0,0,0,1,39
40,1,63,63,2,3,2,2,0,1,1,3,0.62697,0,0,2464.6,2465.2,2465.8,2466.8,2467.8,103,-1.4759521484375,-1.3556976318359375,-3.0,-0.5,-0.6666666666666667,-0.25,-1.4759521484375,-1.3556976318359375,-3.0,0,0,0,0,1,0,0,1,0,1,0,0,1,0,40
41,1,63,63,3,4,3,2,1,1,1,3,0.6932,0,0,2468.8,2469.4,2470.1,2471.1,2472.1,103,-0.30126953125,-0.14093017578125,-2.0,0.5,-0.16666666666666674,0.25,-0.30126953125,-0.14093017578125,-2.0,0,0,0,0,0,1,0,1,0,0,1,0,1,0,41
42,1,63,63,4,5,2,2,2,1,1,3,0.64017,0,0,2473.1,2473.6,2474.3,2475.3,2476.3,103,-1.068359375,-0.7818603515625,-3.0,-0.5,-0.6666666666666667,-0.25,-1.068359375,-0.7818603515625,-3.0,0,0,0,0,1,0,0,1,0,1,0,0,1,0,42
43,0,63,66,5,3,3,2,3,1,1,3,0.5851,0,0,2477.3,2477.8,2478.4,2479.5,2480.5,103,0.2578125,0.61474609375,-2.0,0.5,-0.16666666666666674,0.25,-0.2578125,-0.61474609375,-2.0,0,0,0,0,0,1,0,1,0,0,1,0,1,0,43
44,0,66,70,3,1,4,2,0,1,0,1,0.5784,0,0,2481.5,2482.0,2482.6,2483.6,2484.6,103,0.6328125,0.7683639526367188,0.28125,1.5,0.33333333333333326,0.33333333333333326,-0.6328125,-0.7683639526367188,-0.28125,0,0,0,0,0,0,1,1,0,0,0,1,0,1,44
45,1,70,70,1,2,1,2,1,1,0,1,0.4174,0,0,2485.7,2486.2,2486.6,2487.6,2488.6,103,-2.96875,-2.3812713623046875,-3.3333333333333335,-1.5,-1.1666666666666667,-1.25,-2.96875,-2.3812713623046875,-3.3333333333333335,0,0,1,0,0,0,0,0,1,0,0,0,0,1,45
46,1,70,70,2,3,2,2,2,1,0,1,0.53942,0,0,2489.7,2490.2,2490.7,2491.7,2492.8,103,-2.684895833333332,-1.69586181640625,-3.0,-0.5,-0.6666666666666667,-0.875,-2.684895833333332,-1.69586181640625,-3.0,0,0,0,0,1,0,0,1,0,1,0,0,1,0,46
47,1,70,70,3,4,1,2,3,1,0,1,0.54595,0,0,2493.8,2494.3,2494.9,2495.9,2496.9,103,-3.684895833333332,-2.594482421875,-4.0,-1.5,-1.1666666666666667,-1.5833333333333335,-3.684895833333332,-2.594482421875,-4.0,0,0,0,1,0,0,0,1,1,0,0,0,0,1,47
48,1,70,70,4,5,2,1,0,0,0,0,0.7045,0,0,2497.9,2498.4,2499.1,2500.2,2501.2,103,-0.4130859375,-0.09543609619140625,-0.7500000000000018,-0.5,0.33333333333333326,-0.5,-0.4130859375,-0.09543609619140625,-0.7500000000000018,0,0,0,0,1,0,0,1,0,1,0,0,1,0,48
49,0,70,74,5,4,4,1,1,0,0,0,0.45235,0,0,2502.2,2502.7,2503.2,2504.2,2505.2,103,1.9765625,2.234039306640625,1.666666666666666,1.5,2.333333333333333,1.5,-1.9765625,-2.234039306640625,-1.666666666666666,0,0,0,0,0,0,1,1,0,0,0,1,0,1,49
50,1,74,74,4,5,1,1,2,0,0,0,0.4393,0,0,2506.2,2506.7,2507.2,2508.2,2509.2,103,-1.546875,-1.03192138671875,-2.333333333333334,-1.5,-0.6666666666666667,-1.5,-1.546875,-1.03192138671875,-2.333333333333334,0,0,0,1,0,0,0,1,1,0,0,0,0,1,50
51,0,74,77,5,4,3,1,3,0,0,0,0.6622899999999999,0,0,2510.2,2510.8,2511.4,2512.5,2513.5,103,0.875,1.280029296875,-0.33333333333333215,0.5,1.3333333333333333,0.5,-0.875,-1.280029296875,-0.33333333333333215,0,0,0,0,0,1,0,1,0,0,1,0,1,0,51
52,1,77,77,4,5,2,1,0,0,1,2,1.0179,0,0,2514.5,2515.0,2516.0,2517.1,2518.1,103,0.040283203125,0.07277297973632812,-0.7500000000000018,-0.5,0.33333333333333326,0.33333333333333326,-0.040283203125,-0.07277297973632812,-0.7500000000000018,0,0,0,0,1,0,0,1,0,1,0,0,1,0,52
53,0,77,80,5,4,3,1,1,0,1,2,0.68319,0,0,2519.1,2519.6,2520.3,2521.3,2522.3,103,1.4749348958333321,1.3491058349609375,0.6666666666666661,0.5,1.3333333333333333,1.409090909090909,-1.4749348958333321,-1.3491058349609375,-0.6666666666666661,0,0,0,0,0,1,0,1,0,0,1,0,1,0,53
54,0,80,83,4,3,3,1,2,0,1,2,0.64484,0,0,2523.4,2523.9,2524.5,2525.6,2526.6,103,1.3697916666666643,1.13214111328125,-0.3333333333333339,0.5,1.3333333333333333,1.5,-1.3697916666666643,-1.13214111328125,-0.3333333333333339,0,0,0,0,0,1,0,1,0,0,1,0,1,0,54
55,0,83,87,3,2,4,1,3,0,1,2,0.5742,0,0,2527.6,2528.1,2528.7,2529.7,2530.7,103,2.3385416666666643,2.009033203125,0.666666666666667,1.5,2.333333333333333,2.611111111111111,-2.3385416666666643,-2.009033203125,-0.666666666666667,0,0,0,0,0,0,1,1,0,0,0,1,0,1,55
56,1,87,87,2,3,2,2,0,1,0,1,0.57436,0,0,2531.7,2532.3,2532.8,2533.9,2534.9,103,-1.8604736328125,-1.517425537109375,-3.0,-0.5,-0.6666666666666667,-0.6666666666666667,-1.8604736328125,-1.517425537109375,-3.0,0,0,0,0,1,0,0,1,0,1,0,0,1,0,56
57,1,87,87,3,4,2,2,1,1,0,1,0.48305,0,0,2535.9,2536.4,2536.9,2537.9,2538.9,103,-1.81396484375,-1.3565673828125,-3.0,-0.5,-0.6666666666666667,-0.75,-1.81396484375,-1.3565673828125,-3.0,0,0,0,0,1,0,0,1,0,1,0,0,1,0,57
58,0,87,91,4,2,4,2,2,1,0,1,0.39594,0,0,2540.0,2540.5,2540.9,2541.9,2542.9,103,0.248046875,0.85791015625,-1.0,1.5,0.33333333333333326,0.125,-0.248046875,-0.85791015625,-1.0,0,0,0,0,0,0,1,1,0,0,0,1,0,1,58
59,0,91,94,2,0,3,2,3,1,0,1,0.48416000000000003,0,0,2543.9,2544.5,2545.0,2546.0,2547.0,103,-1.9557291666666679,-1.103515625,-2.0,0.5,-0.16666666666666674,-0.5833333333333335,-1.9557291666666679,-1.103515625,-2.0,0,0,0,0,0,1,0,1,0,0,1,0,1,0,59
60,1,94,94,0,1,1,1,0,0,0,0,0.41176999999999997,0,0,2548.0,2548.5,2549.0,2550.0,2551.0,103,-1.8201497395833321,-1.6787872314453125,-1.833333333333333,-1.5,-0.6666666666666667,-1.5,-1.8201497395833321,-1.6787872314453125,-1.833333333333333,0,1,0,0,0,0,0,0,1,0,0,0,0,1,60
61,1,94,94,1,2,1,1,1,0,0,0,0.40489,0,0,2552.0,2552.5,2552.9,2554.0,2555.0,103,-2.337890625,-2.04193115234375,-2.5,-1.5,-0.6666666666666667,-1.5,-2.337890625,-2.04193115234375,-2.5,0,0,0,1,0,0,0,1,1,0,0,0,0,1,61
62,1,94,94,2,3,1,1,2,0,0,0,0.38946,0,0,2556.0,2556.5,2556.9,2557.9,2558.9,103,-2.1171875,-1.5838623046875,-2.333333333333334,-1.5,-0.6666666666666667,-1.5,-2.1171875,-1.5838623046875,-2.333333333333334,0,0,0,1,0,0,0,1,1,0,0,0,0,1,62
63,1,94,94,3,4,2,1,3,0,0,0,0.61078,0,0,2560.0,2560.5,2561.1,2562.1,2563.1,103,-0.96875,-0.203857421875,-1.333333333333333,-0.5,0.33333333333333326,-0.5,-0.96875,-0.203857421875,-1.333333333333333,0,0,0,0,1,0,0,1,0,1,0,0,1,0,63
64,0,94,98,4,3,4,1,0,0,1,2,0.62844,0,0,2564.1,2564.7,2565.3,2566.3,2567.3,103,2.040283203125,2.072772979736328,1.2499999999999982,1.5,2.333333333333333,2.333333333333333,-2.040283203125,-2.072772979736328,-1.2499999999999982,0,0,0,0,0,0,1,1,0,0,0,1,0,1,64
65,0,98,101,3,2,3,1,1,0,1,2,0.3659,0,0,2568.4,2568.9,2569.3,2570.3,2571.3,103,0.8430989583333321,0.9709930419921875,-0.3333333333333339,0.5,1.3333333333333333,1.409090909090909,-0.8430989583333321,-0.9709930419921875,-0.3333333333333339,0,0,0,0,0,1,0,1,0,0,1,0,1,0,65
66,0,101,104,2,1,3,1,2,0,1,2,0.4092,0,0,2572.3,2572.8,2573.2,2574.3,2575.3,103,0.5013020833333339,0.87591552734375,-0.3333333333333339,0.5,1.3333333333333333,1.5,-0.5013020833333339,-0.87591552734375,-0.3333333333333339,0,0,0,0,0,1,0,1,0,0,1,0,1,0,66
67,1,104,104,1,2,1,1,3,0,1,2,0.41989,0,0,2576.3,2576.8,2577.2,2578.3,2579.3,103,-2.333333333333333,-1.252685546875,-2.3333333333333335,-1.5,-0.6666666666666667,-0.38888888888888884,-2.333333333333333,-1.252685546875,-2.3333333333333335,0,0,0,1,0,0,0,1,1,0,0,0,0,1,67
68,1,104,104,2,3,1,2,0,1,1,3,0.42628999999999995,0,0,2580.3,2580.8,2581.2,2582.3,2583.3,103,-2.4759521484375,-2.3556976318359375,-4.0,-1.5,-1.1666666666666667,-0.75,-2.4759521484375,-2.3556976318359375,-4.0,0,0,0,1,0,0,0,1,1,0,0,0,0,1,68
69,0,104,107,3,1,3,2,1,1,1,3,0.67989,0,0,2584.3,2584.8,2585.5,2586.5,2587.5,103,-0.30126953125,-0.14093017578125,-2.0,0.5,-0.16666666666666674,0.25,-0.30126953125,-0.14093017578125,-2.0,0,0,0,0,0,1,0,1,0,0,1,0,1,0,69
70,1,107,107,1,2,3,2,2,1,1,3,0.4473,0,0,2588.6,2589.1,2589.5,2590.6,2591.6,103,-2.175130208333334,-2.4366455078125,-3.333333333333333,0.5,-0.16666666666666674,0.25,-2.175130208333334,-2.4366455078125,-3.333333333333333,0,0,1,0,0,0,0,0,0,0,1,0,1,0,70
71,1,107,107,2,3,1,2,3,1,1,3,0.65464,0,0,2592.6,2593.1,2593.8,2594.8,2595.8,103,-2.789062500000001,-2.35693359375,-4.0,-1.5,-1.1666666666666667,-0.75,-2.789062500000001,-2.35693359375,-4.0,0,0,0,1,0,0,0,1,1,0,0,0,0,1,71
72,0,107,111,3,1,4,2,0,1,0,1,0.5323399999999999,0,0,2596.8,2597.3,2597.9,2598.9,2599.9,103,0.6328125,0.7683639526367188,0.28125,1.5,0.33333333333333326,0.33333333333333326,-0.6328125,-0.7683639526367188,-0.28125,0,0,0,0,0,0,1,1,0,0,0,1,0,1,72
73,1,111,111,1,2,1,2,1,1,0,1,0.4234,0,0,2600.9,2601.5,2601.9,2602.9,2603.9,103,-2.96875,-2.3812713623046875,-3.3333333333333335,-1.5,-1.1666666666666667,-1.25,-2.96875,-2.3812713623046875,-3.3333333333333335,0,0,1,0,0,0,0,0,1,0,0,0,0,1,73
74,0,111,115,2,0,4,2,2,1,0,1,0.56002,0,0,2604.9,2605.5,2606.0,2607.0,2608.1,103,-0.6848958333333321,0.30413818359375,-1.0,1.5,0.33333333333333326,0.125,-0.6848958333333321,-0.30413818359375,-1.0,0,0,0,0,0,0,1,1,0,0,0,1,0,1,74
75,1,115,115,0,1,3,2,3,1,0,1,0.58992,0,0,2609.1,2609.6,2610.2,2611.2,2612.2,103,-1.8151041666666679,-1.5732421875,-1.6666666666666667,0.5,-0.16666666666666674,-0.5833333333333335,-1.8151041666666679,-1.5732421875,-1.6666666666666667,0,0,1,0,0,0,0,0,0,0,1,0,1,0,75
76,1,115,115,1,2,4,1,0,0,0,0,0.63822,0,0,2613.2,2613.8,2614.4,2615.4,2616.4,103,0.7438964843749964,0.932708740234375,0.46875,1.5,2.333333333333333,1.5,-0.7438964843749964,-0.932708740234375,-0.46875,0,0,0,0,0,0,1,1,0,0,0,1,0,1,76
77,1,115,115,2,3,1,1,1,0,0,0,0.57097,0,0,2617.5,2618.0,2618.6,2619.6,2620.6,103,-2.0081380208333357,-1.63458251953125,-2.375000000000001,-1.5,-0.6666666666666667,-1.5,-2.0081380208333357,-1.63458251953125,-2.375000000000001,0,0,0,1,0,0,0,1,1,0,0,0,0,1,77
78,0,115,119,3,2,4,1,2,0,0,0,0.49166000000000004,0,0,2621.6,2622.1,2622.6,2623.6,2624.7,103,1.1614583333333321,1.7384033203125,0.6666666666666679,1.5,2.333333333333333,1.5,-1.1614583333333321,-1.7384033203125,-0.6666666666666679,0,0,0,0,0,0,1,1,0,0,0,1,0,1,78
79,1,119,119,2,3,2,1,3,0,0,0,0.58744,0,0,2625.7,2626.2,2626.8,2627.8,2628.8,103,-1.140625,-0.5302734375,-1.333333333333333,-0.5,0.33333333333333326,-0.5,-1.140625,-0.5302734375,-1.333333333333333,0,0,0,0,1,0,0,1,0,1,0,0,1,0,79
80,0,119,123,3,2,4,1,0,0,1,2,0.55648,0,0,2629.8,2630.4,2630.9,2631.9,2633.0,103,1.623046875,1.78118896484375,0.9895833333333321,1.5,2.333333333333333,2.333333333333333,-1.623046875,-1.78118896484375,-0.9895833333333321,0,0,0,0,0,0,1,1,0,0,0,1,0,1,80
81,1,123,123,2,3,2,1,1,0,1,2,0.54645,0,0,2634.0,2634.5,2635.1,2636.1,2637.1,103,-0.5735677083333321,-0.47802734375,-1.3750000000000009,-0.5,0.33333333333333326,0.40909090909090895,-0.5735677083333321,-0.47802734375,-1.3750000000000009,0,0,0,0,1,0,0,1,0,1,0,0,1,0,81
82,0,123,126,3,2,3,1,2,0,1,2,0.75626,0,0,2638.1,2638.6,2639.4,2640.4,2641.4,103,0.6640625000000018,0.931884765625,-0.33333333333333215,0.5,1.3333333333333333,1.5,-0.6640625000000018,-0.931884765625,-0.33333333333333215,0,0,0,0,0,1,0,1,0,0,1,0,1,0,82
83,1,126,126,2,3,2,1,3,0,1,2,0.42968,0,0,2642.4,2643.0,2643.4,2644.4,2645.4,103,-0.12239583333333393,-0.27587890625,-1.333333333333333,-0.5,0.33333333333333326,0.6111111111111112,-0.12239583333333393,-0.27587890625,-1.333333333333333,0,0,0,0,1,0,0,1,0,1,0,0,1,0,83
84,0,126,130,3,1,4,2,0,1,1,3,0.58775,0,0,2646.5,2647.0,2647.6,2648.6,2649.6,103,0.8214518229166661,0.8496856689453125,0.28125,1.5,0.33333333333333326,0.75,-0.8214518229166661,-0.8496856689453125,-0.28125,0,0,0,0,0,0,1,1,0,0,0,1,0,1,84
85,1,130,130,1,2,2,2,1,1,1,3,0.6229399999999999,0,0,2650.6,2651.1,2651.8,2652.8,2653.8,103,-1.9554036458333357,-2.357330322265625,-3.3333333333333335,-0.5,-0.6666666666666667,-0.25,-1.9554036458333357,-2.357330322265625,-3.3333333333333335,0,0,1,0,0,0,0,0,0,1,0,0,1,0,85
86,1,130,130,2,3,1,2,2,1,1,3,0.53196,0,0,2654.8,2655.3,2655.9,2656.9,2657.9,103,-2.4960937500000018,-2.3719482421875,-4.0,-1.5,-1.1666666666666667,-0.75,-2.4960937500000018,-2.3719482421875,-4.0,0,0,0,1,0,0,0,1,1,0,0,0,0,1,86
87,0,130,134,3,1,4,2,3,1,1,3,0.68105,0,0,2658.9,2659.5,2660.2,2661.2,2662.2,103,0.6718749999999982,0.83740234375,-1.0,1.5,0.33333333333333326,0.75,-0.6718749999999982,-0.83740234375,-1.0,0,0,0,0,0,0,1,1,0,0,0,1,0,1,87
88,1,134,134,1,2,2,2,0,1,1,3,0.65479,0,0,2663.2,2663.7,2664.4,2665.4,2666.4,103,-3.071858723958332,-2.2638778686523438,-3.333333333333334,-0.5,-0.6666666666666667,-0.25,-3.071858723958332,-2.2638778686523438,-3.333333333333334,0,0,1,0,0,0,0,0,0,1,0,0,1,0,88
89,0,134,137,2,0,3,2,1,1,1,3,1.1817,0,0,2667.4,2668.0,2669.2,2670.2,2671.2,103,-0.4404296875,-0.371856689453125,-2.0,0.5,-0.16666666666666674,0.25,-0.4404296875,-0.371856689453125,-2.0,0,0,0,0,0,1,0,1,0,0,1,0,1,0,89
90,1,137,137,0,1,2,2,2,1,1,3,0.48696999999999996,0,0,2672.2,2672.7,2673.2,2674.2,2675.3,103,-1.666666666666666,-1.171630859375,-1.6666666666666667,-0.5,-0.6666666666666667,-0.25,-1.666666666666666,-1.171630859375,-1.6666666666666667,0,0,1,0,0,0,0,0,0,1,0,0,1,0,90
91,1,137,137,1,2,4,2,3,1,1,3,0.96019,0,0,2676.3,2676.8,2677.8,2678.8,2679.8,103,-3.333333333333333,-2.252685546875,-3.3333333333333335,1.5,0.33333333333333326,0.75,-3.333333333333333,-2.252685546875,-3.3333333333333335,0,0,1,0,0,0,0,0,0,0,0,1,0,1,91
92,0,137,140,2,0,3,2,0,1,0,1,1.1355,0,0,2680.8,2681.3,2682.5,2683.5,2684.5,103,-0.8604736328125,-0.517425537109375,-2.0,0.5,-0.16666666666666674,-0.16666666666666674,-0.8604736328125,-0.517425537109375,-2.0,0,0,0,0,0,1,0,1,0,0,1,0,1,0,92
93,1,140,140,0,1,3,2,1,1,0,1,0.90775,0,0,2685.5,2686.0,2687.0,2688.0,2689.0,103,-1.4244791666666679,-1.1396484375,-1.6666666666666665,0.5,-0.16666666666666674,-0.25,-1.4244791666666679,-1.1396484375,-1.6666666666666665,0,0,1,0,0,0,0,0,0,0,1,0,1,0,93
94,1,140,140,1,2,3,2,2,1,0,1,1.0047,0,0,2690.0,2690.5,2691.5,2692.6,2693.6,103,-3.140625,-2.5302734375,-3.333333333333333,0.5,-0.16666666666666674,-0.375,-3.140625,-2.5302734375,-3.333333333333333,0,0,1,0,0,0,0,0,0,0,1,0,1,0,94
95,0,140,144,2,0,4,2,3,1,0,1,0.5715,0,0,2694.6,2695.1,2695.7,2696.7,2697.7,103,-0.9557291666666679,-0.103515625,-1.0,1.5,0.33333333333333326,-0.08333333333333348,-0.9557291666666679,-0.103515625,-1.0,0,0,0,0,0,0,1,1,0,0,0,1,0,1,95
96,1,144,144,0,1,2,1,0,0,1,2,0.76707,0,0,2698.7,2699.3,2700.0,2701.1,2702.1,103,-1.9274088541666679,-1.7573394775390625,-1.833333333333333,-0.5,0.33333333333333326,0.33333333333333326,-1.9274088541666679,-1.7573394775390625,-1.833333333333333,0,1,0,0,0,0,0,0,0,1,0,0,1,0,96
97,0,144,147,1,0,3,1,1,0,1,2,0.86613,0,0,2703.1,2703.6,2704.5,2705.5,2706.5,103,0.0006510416666678509,0.187957763671875,-0.5,0.5,1.3333333333333333,1.409090909090909,-0.0006510416666678509,-0.187957763671875,-0.5,0,0,0,0,0,1,0,1,0,0,1,0,1,0,97
98,1,147,147,0,1,3,1,2,0,1,2,0.82689,0,0,2707.5,2708.1,2708.9,2709.9,2710.9,103,-1.833333333333334,-1.7952880859375,-1.8333333333333333,0.5,1.3333333333333333,1.5,-1.833333333333334,-1.7952880859375,-1.8333333333333333,0,1,0,0,0,0,0,0,0,0,1,0,1,0,98
99,1,147,147,1,2,2,1,3,0,1,2,0.52456,0,0,2711.9,2712.5,2713.0,2714.0,2715.0,103,-1.3333333333333321,-0.252685546875,-1.3333333333333335,-0.5,0.33333333333333326,0.6111111111111112,-1.3333333333333321,-0.252685546875,-1.3333333333333335,0,0,0,0,1,0,0,1,0,1,0,0,1,0,99
100,0,147,151,2,0,4,2,0,1,1,3,0.58648,0,0,2716.0,2716.6,2717.2,2718.2,2719.2,103,0.5240478515625,0.6443023681640625,-1.0,1.5,0.33333333333333326,0.75,-0.5240478515625,-0.6443023681640625,-1.0,0,0,0,0,0,0,1,1,0,0,0,1,0,1,100
101,1,151,151,0,1,2,2,1,1,1,3,1.4165,0,0,2720.2,2720.7,2722.2,2723.2,2724.2,103,-0.5084635416666679,-1.2650146484375,-1.6666666666666665,-0.5,-0.6666666666666667,-0.25,-0.5084635416666679,-1.2650146484375,-1.6666666666666665,0,0,1,0,0,0,0,0,0,1,0,0,1,0,101
102,1,151,151,1,2,4,2,2,1,1,3,0.8651200000000001,0,0,2725.2,2725.7,2726.6,2727.6,2728.6,103,-2.175130208333334,-2.4366455078125,-3.333333333333333,1.5,0.33333333333333326,0.75,-2.175130208333334,-2.4366455078125,-3.333333333333333,0,0,1,0,0,0,0,0,0,0,0,1,0,1,102
103,1,151,151,2,3,1,2,3,1,1,3,1.1115,0,0,2729.7,2730.2,2731.3,2732.3,2733.3,103,-2.789062500000001,-2.35693359375,-4.0,-1.5,-1.1666666666666667,-0.75,-2.789062500000001,-2.35693359375,-4.0,0,0,0,1,0,0,0,1,1,0,0,0,0,1,103
104,1,151,151,3,4,1,2,0,1,0,1,0.91289,0,0,2734.4,2734.9,2735.8,2736.8,2737.8,103,-2.3671875,-2.2316360473632812,-2.718750000000001,-1.5,-1.1666666666666667,-1.1666666666666667,-2.3671875,-2.2316360473632812,-2.718750000000001,0,0,0,1,0,0,0,1,1,0,0,0,0,1,104
105,1,151,151,4,5,2,2,1,1,0,1,0.51093,0,0,2738.9,2739.4,2739.9,2740.9,2741.9,103,-1.15625,-0.9632720947265625,-1.625,-0.5,-0.6666666666666667,-0.75,-1.15625,-0.9632720947265625,-1.625,0,0,0,0,1,0,0,1,0,1,0,0,1,0,105
106,1,151,151,5,6,2,2,2,1,0,1,0.64174,0,0,2742.9,2743.5,2744.1,2745.1,2746.1,103,-0.8125,-0.57861328125,-1.5,-0.5,-0.6666666666666667,-0.875,-0.8125,-0.57861328125,-1.5,0,0,0,0,1,0,0,1,0,1,0,0,1,0,106
107,0,151,155,6,4,4,2,3,1,0,1,0.58712,0,0,2747.2,2747.7,2748.3,2749.3,2750.3,103,1.875,2.280029296875,0.6666666666666679,1.5,0.33333333333333326,-0.08333333333333348,-1.875,-2.280029296875,-0.6666666666666679,1,0,0,0,0,0,0,0,0,0,0,1,0,1,107
108,1,155,155,4,5,1,1,0,0,0,0,0.54406,0,0,2751.3,2751.8,2752.4,2753.4,2754.4,103,-1.4130859375,-1.0954360961914062,-1.7500000000000018,-1.5,-0.6666666666666667,-1.5,-1.4130859375,-1.0954360961914062,-1.7500000000000018,0,0,0,1,0,0,0,1,1,0,0,0,0,1,108
109,1,155,155,5,6,2,1,1,0,0,0,0.52445,0,0,2755.4,2756.0,2756.5,2757.5,2758.5,103,-0.0234375,0.234039306640625,-0.3333333333333339,-0.5,0.33333333333333326,-0.5,-0.0234375,-0.234039306640625,-0.3333333333333339,0,0,0,0,1,0,0,1,0,1,0,0,1,0,109
110,0,155,159,6,5,4,1,2,0,0,0,0.5724199999999999,0,0,2759.5,2760.1,2760.6,2761.7,2762.7,103,3.234375,3.25836181640625,3.166666666666666,1.5,2.333333333333333,1.5,-3.234375,-3.25836181640625,-3.166666666666666,1,0,0,0,0,0,0,0,0,0,0,1,0,1,110
111,0,159,162,5,4,3,1,3,0,0,0,0.9353899999999999,0,0,2763.7,2764.2,2765.2,2766.2,2767.2,103,0.875,1.280029296875,-0.33333333333333215,0.5,1.3333333333333333,0.5,-0.875,-1.280029296875,-0.33333333333333215,0,0,0,0,0,1,0,1,0,0,1,0,1,0,111
112,0,162,165,4,3,3,1,0,0,1,2,0.67227,0,0,2768.2,2768.7,2769.4,2770.4,2771.4,103,1.040283203125,1.0727729797363281,0.24999999999999822,0.5,1.3333333333333333,1.3333333333333333,-1.040283203125,-1.0727729797363281,-0.24999999999999822,0,0,0,0,0,1,0,1,0,0,1,0,1,0,112
113,0,165,166,3,2,1,1,1,0,1,2,0.7793,0,0,2772.5,2773.0,2773.8,2774.8,2775.8,103,-1.1569010416666679,-1.0290069580078125,-2.333333333333334,-1.5,-0.6666666666666667,-0.590909090909091,-1.1569010416666679,-1.0290069580078125,-2.333333333333334,0,0,0,1,0,0,0,1,1,0,0,0,0,1,113
114,1,166,166,2,3,1,1,2,0,1,2,0.605,0,0,2776.8,2777.3,2778.0,2779.0,2780.0,103,-1.498697916666666,-1.12408447265625,-2.333333333333334,-1.5,-0.6666666666666667,-0.5,-1.498697916666666,-1.12408447265625,-2.333333333333334,0,0,0,1,0,0,0,1,1,0,0,0,0,1,114
115,1,166,166,3,4,1,1,3,0,1,2,0.49285,0,0,2781.0,2781.5,2782.0,2783.0,2784.1,103,-0.6614583333333357,-0.990966796875,-2.333333333333333,-1.5,-0.6666666666666667,-0.38888888888888884,-0.6614583333333357,-0.990966796875,-2.333333333333333,0,0,0,1,0,0,0,1,1,0,0,0,0,1,115
116,1,166,166,4,5,1,2,0,1,1,3,0.5365300000000001,0,0,2785.1,2785.6,2786.1,2787.2,2788.2,103,-1.7720540364583357,-1.7949142456054688,-2.104166666666668,-1.5,-1.1666666666666667,-0.75,-1.7720540364583357,-1.7949142456054688,-2.104166666666668,0,0,0,1,0,0,0,1,1,0,0,0,0,1,116
117,1,166,166,5,6,1,2,1,1,1,3,0.49094,0,0,2789.2,2789.7,2790.2,2791.2,2792.2,103,-1.3238932291666679,-1.403900146484375,-1.708333333333334,-1.5,-1.1666666666666667,-0.75,-1.3238932291666679,-1.403900146484375,-1.708333333333334,0,0,0,1,0,0,0,1,1,0,0,0,0,1,117
118,0,166,170,6,4,4,2,2,1,1,3,0.46831999999999996,0,0,2793.3,2793.8,2794.3,2795.3,2796.3,103,2.9583333333333304,2.546875,2.166666666666666,1.5,0.33333333333333326,0.75,-2.9583333333333304,-2.546875,-2.166666666666666,1,0,0,0,0,0,0,0,0,0,0,1,0,1,118
119,0,170,173,4,2,3,2,3,1,1,3,1.3473,0,0,2797.3,2797.8,2799.2,2800.2,2801.2,103,-0.0052083333333339255,0.175048828125,-2.0,0.5,-0.16666666666666674,0.25,-0.0052083333333339255,-0.175048828125,-2.0,0,0,0,0,0,1,0,1,0,0,1,0,1,0,119
120,1,173,173,2,3,2,2,0,1,0,1,2.0201,0,0,2802.2,2802.8,2804.8,2805.8,2806.8,103,-1.8604736328125,-1.517425537109375,-3.0,-0.5,-0.6666666666666667,-0.6666666666666667,-1.8604736328125,-1.517425537109375,-3.0,0,0,0,0,1,0,0,1,0,1,0,0,1,0,120
121,0,173,176,3,1,3,2,1,1,0,1,0.54257,0,0,2807.8,2808.4,2808.9,2809.9,2810.9,103,-0.81396484375,-0.3565673828125,-2.0,0.5,-0.16666666666666674,-0.25,-0.81396484375,-0.3565673828125,-2.0,0,0,0,0,0,1,0,1,0,0,1,0,1,0,121
122,1,176,176,1,2,1,2,2,1,0,1,0.40673000000000004,0,0,2812.0,2812.5,2812.9,2813.9,2814.9,103,-3.140625,-2.5302734375,-3.333333333333333,-1.5,-1.1666666666666667,-1.375,-3.140625,-2.5302734375,-3.333333333333333,0,0,1,0,0,0,0,0,1,0,0,0,0,1,122
