,response,points,points_after,energy,energy_after,reward,energy_cost,trial,segment,segment_after,transition,reaction_time,timeout,energy_out,stimulus_onset,response_onset,selection_onset,feedback_onset,iti_onset,vpn,dv_planning_old,dv_planning,dv_myopic_planning,dv_simple,dv_OCR,dv_AVGRR,conflict_planning_old,conflict_planning,conflict_myopic_planning,is_full_energy,is_low_energy_LC,is_low_energy_HC,is_basic_1,is_basic_2,is_basic_3,is_basic_4,is_basic,is_1,is_2,is_3,is_4,is_23,is_14,index
0,,0,0,3,3,2,1,0,0,1,2,,1,0,15125.0,15126.0,0.0,15131.0,15132.0,101,-0.376953125,-0.21881103515625,-1.0104166666666679,-0.5,0.33333333333333326,0.33333333333333326,-0.376953125,-0.21881103515625,-1.0104166666666679,0,0,0,0,1,0,0,1,0,1,0,0,1,0,0
1,0.0,0,3,3,2,3,1,1,0,1,2,0.8304299999999999,0,0,15135.0,15135.0,15136.0,15141.0,15142.0,101,0.8430989583333321,0.9709930419921875,-0.3333333333333339,0.5,1.3333333333333333,1.409090909090909,-0.8430989583333321,-0.9709930419921875,-0.3333333333333339,0,0,0,0,0,1,0,1,0,0,1,0,1,0,1
2,0.0,3,7,2,1,4,1,2,0,1,2,0.91953,0,0,15144.0,15145.0,15146.0,15147.0,15148.0,101,1.501302083333334,1.87591552734375,0.6666666666666661,1.5,2.333333333333333,2.5,-1.501302083333334,-1.87591552734375,-0.6666666666666661,0,0,0,0,0,0,1,1,0,0,0,1,0,1,2
3,0.0,7,11,1,0,4,1,3,0,1,2,1.5135,0,0,15153.0,15153.0,15155.0,15160.0,15161.0,101,0.6666666666666679,1.747314453125,0.6666666666666665,1.5,2.333333333333333,2.611111111111111,-0.6666666666666679,-1.747314453125,-0.6666666666666665,0,0,0,0,0,0,1,1,0,0,0,1,0,1,3
4,1.0,11,11,0,1,1,2,0,1,1,3,0.88623,0,0,15163.0,15163.0,15164.0,15168.0,15169.0,101,-1.4469401041666679,-1.092315673828125,-1.666666666666667,-1.5,-1.1666666666666667,-0.75,-1.4469401041666679,-1.092315673828125,-1.666666666666667,0,0,1,0,0,0,0,0,1,0,0,0,0,1,4
5,0.0,11,11,1,1,3,2,1,1,1,3,1.6762,0,1,15174.0,15174.0,15176.0,15177.0,15179.0,101,-1.9554036458333357,-2.357330322265625,-3.3333333333333335,0.5,-0.16666666666666674,0.25,-1.9554036458333357,-2.357330322265625,-3.3333333333333335,0,0,1,0,0,0,0,0,0,0,1,0,1,0,5
6,1.0,11,11,1,2,4,2,2,1,1,3,0.9405399999999999,0,0,15183.0,15183.0,15184.0,15187.0,15188.0,101,-2.175130208333334,-2.4366455078125,-3.333333333333333,1.5,0.33333333333333326,0.75,-2.175130208333334,-2.4366455078125,-3.333333333333333,0,0,1,0,0,0,0,0,0,0,0,1,0,1,6
7,0.0,11,14,2,0,3,2,3,1,1,3,4.0881,0,0,15191.0,15192.0,15196.0,15199.0,15200.0,101,-0.7890625,-0.35693359375,-2.0,0.5,-0.16666666666666674,0.25,-0.7890625,-0.35693359375,-2.0,0,0,0,0,0,1,0,1,0,0,1,0,1,0,7
8,1.0,14,14,0,1,1,2,0,1,0,1,0.79289,0,0,15204.0,15204.0,15205.0,15210.0,15211.0,101,-1.5442708333333321,-1.2416229248046875,-1.666666666666667,-1.5,-1.1666666666666667,-1.1666666666666667,-1.5442708333333321,-1.2416229248046875,-1.666666666666667,0,0,1,0,0,0,0,0,1,0,0,0,0,1,8
9,1.0,14,14,1,2,2,2,1,1,0,1,1.1358,0,0,15214.0,15214.0,15215.0,15220.0,15221.0,101,-2.96875,-2.3812713623046875,-3.3333333333333335,-0.5,-0.6666666666666667,-0.75,-2.96875,-2.3812713623046875,-3.3333333333333335,0,0,1,0,0,0,0,0,0,1,0,0,1,0,9
10,1.0,14,14,2,3,3,2,2,1,0,1,4.5277,0,0,15225.0,15225.0,15230.0,15231.0,15232.0,101,-1.6848958333333321,-0.69586181640625,-2.0,0.5,-0.16666666666666674,-0.375,-1.6848958333333321,-0.69586181640625,-2.0,0,0,0,0,0,1,0,1,0,0,1,0,1,0,10
11,1.0,14,14,3,4,2,2,3,1,0,1,1.6153,0,0,15237.0,15238.0,15239.0,15244.0,15245.0,101,-2.684895833333332,-1.594482421875,-3.0,-0.5,-0.6666666666666667,-1.0833333333333335,-2.684895833333332,-1.594482421875,-3.0,0,0,0,0,1,0,0,1,0,1,0,0,1,0,11
12,0.0,14,18,4,3,4,1,0,0,0,0,1.0552,0,0,15249.0,15249.0,15250.0,15255.0,15256.0,101,1.5869140625,1.9045639038085938,1.2499999999999982,1.5,2.333333333333333,1.5,-1.5869140625,-1.9045639038085938,-1.2499999999999982,0,0,0,0,0,0,1,1,0,0,0,1,0,1,12
13,1.0,18,18,3,4,2,1,1,0,0,0,1.1495,0,0,15260.0,15260.0,15261.0,15264.0,15265.0,101,-0.802734375,-0.307891845703125,-1.333333333333334,-0.5,0.33333333333333326,-0.5,-0.802734375,-0.307891845703125,-1.333333333333334,0,0,0,0,1,0,0,1,0,1,0,0,1,0,13
14,0.0,18,20,4,3,2,1,2,0,0,0,3.6983,0,0,15268.0,15269.0,15272.0,15277.0,15278.0,101,-0.546875,-0.03192138671875,-1.333333333333334,-0.5,0.33333333333333326,-0.5,-0.546875,-0.03192138671875,-1.333333333333334,0,0,0,0,1,0,0,1,0,1,0,0,1,0,14
15,0.0,20,24,3,2,4,1,3,0,0,0,1.093,0,0,15281.0,15282.0,15283.0,15284.0,15285.0,101,1.03125,1.796142578125,0.666666666666667,1.5,2.333333333333333,1.5,-1.03125,-1.796142578125,-0.666666666666667,0,0,0,0,0,0,1,1,0,0,0,1,0,1,15
16,0.0,24,27,2,1,3,1,0,0,0,0,1.2317,0,0,15289.0,15290.0,15291.0,15294.0,15295.0,101,0.01416015625,0.3355712890625,-0.375,0.5,1.3333333333333333,0.5,-0.01416015625,-0.3355712890625,-0.375,0,0,0,0,0,1,0,1,0,0,1,0,1,0,16
17,1.0,27,27,1,2,1,1,1,0,0,0,0.88345,0,0,15299.0,15299.0,15300.0,15305.0,15306.0,101,-2.337890625,-2.04193115234375,-2.5,-1.5,-0.6666666666666667,-1.5,-2.337890625,-2.04193115234375,-2.5,0,0,0,1,0,0,0,1,1,0,0,0,0,1,17
18,0.0,27,30,2,1,3,1,2,0,0,0,1.5136,0,0,15309.0,15310.0,15311.0,15315.0,15316.0,101,-0.1171875,0.4161376953125,-0.3333333333333339,0.5,1.3333333333333333,0.5,-0.1171875,-0.4161376953125,-0.3333333333333339,0,0,0,0,0,1,0,1,0,0,1,0,1,0,18
19,1.0,30,30,1,2,2,1,3,0,0,0,0.9426,0,0,15319.0,15320.0,15321.0,15326.0,15327.0,101,-1.53125,-0.9638671875,-1.3333333333333335,-0.5,0.33333333333333326,-0.5,-1.53125,-0.9638671875,-1.3333333333333335,0,0,0,0,1,0,0,1,0,1,0,0,1,0,19
20,0.0,30,34,2,1,4,1,0,0,1,2,1.1118,0,0,15332.0,15332.0,15333.0,15337.0,15338.0,101,1.4218750000000018,1.5794754028320312,0.625,1.5,2.333333333333333,2.333333333333333,-1.4218750000000018,-1.5794754028320312,-0.625,0,0,0,0,0,0,1,1,0,0,0,1,0,1,20
21,0.0,34,37,1,0,3,1,1,0,1,2,2.4583,0,0,15340.0,15341.0,15343.0,15344.0,15345.0,101,0.0006510416666678509,0.187957763671875,-0.5,0.5,1.3333333333333333,1.409090909090909,-0.0006510416666678509,-0.187957763671875,-0.5,0,0,0,0,0,1,0,1,0,0,1,0,1,0,21
22,1.0,37,37,0,1,3,1,2,0,1,2,0.69914,0,0,15350.0,15350.0,15351.0,15356.0,15357.0,101,-1.833333333333334,-1.7952880859375,-1.8333333333333333,0.5,1.3333333333333333,1.5,-1.833333333333334,-1.7952880859375,-1.8333333333333333,0,1,0,0,0,0,0,0,0,0,1,0,1,0,22
23,0.0,37,41,1,0,4,1,3,0,1,2,1.4459,0,0,15361.0,15362.0,15363.0,15368.0,15369.0,101,0.6666666666666679,1.747314453125,0.6666666666666665,1.5,2.333333333333333,2.611111111111111,-0.6666666666666679,-1.747314453125,-0.6666666666666665,0,0,0,0,0,0,1,1,0,0,0,1,0,1,23
24,1.0,41,41,0,1,3,2,0,1,1,3,0.9346700000000001,0,0,15373.0,15374.0,15375.0,15379.0,15380.0,101,-1.4469401041666679,-1.092315673828125,-1.666666666666667,0.5,-0.16666666666666674,0.25,-1.4469401041666679,-1.092315673828125,-1.666666666666667,0,0,1,0,0,0,0,0,0,0,1,0,1,0,24
25,1.0,41,41,1,2,1,2,1,1,1,3,0.7492,0,0,15382.0,15382.0,15383.0,15387.0,15388.0,101,-1.9554036458333357,-2.357330322265625,-3.3333333333333335,-1.5,-1.1666666666666667,-0.75,-1.9554036458333357,-2.357330322265625,-3.3333333333333335,0,0,1,0,0,0,0,0,1,0,0,0,0,1,25
26,1.0,41,41,2,3,1,2,2,1,1,3,1.8863,0,0,15391.0,15392.0,15393.0,15397.0,15399.0,101,-2.4960937500000018,-2.3719482421875,-4.0,-1.5,-1.1666666666666667,-0.75,-2.4960937500000018,-2.3719482421875,-4.0,0,0,0,1,0,0,0,1,1,0,0,0,0,1,26
27,1.0,41,41,3,4,2,2,3,1,1,3,3.2243,0,0,15402.0,15402.0,15405.0,15408.0,15409.0,101,-1.3281250000000018,-1.16259765625,-3.0,-0.5,-0.6666666666666667,-0.25,-1.3281250000000018,-1.16259765625,-3.0,0,0,0,0,1,0,0,1,0,1,0,0,1,0,27
28,1.0,41,41,4,5,2,2,0,1,0,1,1.234,0,0,15413.0,15413.0,15415.0,15418.0,15419.0,101,-1.09375,-0.8625030517578125,-1.1041666666666679,-0.5,-0.6666666666666667,-0.6666666666666667,-1.09375,-0.8625030517578125,-1.1041666666666679,0,0,0,0,1,0,0,1,0,1,0,0,1,0,28
29,1.0,41,41,5,6,1,2,1,1,0,1,2.2061,0,0,15422.0,15422.0,15424.0,15426.0,15427.0,101,-1.6874999999999982,-1.4709625244140625,-1.708333333333334,-1.5,-1.1666666666666667,-1.25,-1.6874999999999982,-1.4709625244140625,-1.708333333333334,0,0,0,1,0,0,0,1,1,0,0,0,0,1,29
30,0.0,41,43,6,4,2,2,2,1,0,1,0.90809,0,0,15431.0,15432.0,15433.0,15437.0,15438.0,101,0.25,0.46026611328125,0.16666666666666607,-0.5,-0.6666666666666667,-0.875,-0.25,-0.46026611328125,-0.16666666666666607,1,0,0,0,0,0,0,0,0,1,0,0,1,0,30
31,1.0,43,43,4,5,2,2,3,1,0,1,1.6341,0,0,15440.0,15441.0,15442.0,15443.0,15444.0,101,-2.0312500000000018,-1.12548828125,-3.0,-0.5,-0.6666666666666667,-1.0833333333333335,-2.0312500000000018,-1.12548828125,-3.0,0,0,0,0,1,0,0,1,0,1,0,0,1,0,31
32,0.0,43,47,5,4,4,1,0,0,0,0,1.0367,0,0,15448.0,15449.0,15450.0,15452.0,15453.0,101,2.018391927083332,2.2171783447265625,1.7916666666666679,1.5,2.333333333333333,1.5,-2.018391927083332,-2.2171783447265625,-1.7916666666666679,0,0,0,0,0,0,1,1,0,0,0,1,0,1,32
33,1.0,47,47,4,5,2,1,1,0,0,0,2.1176,0,0,15456.0,15457.0,15459.0,15460.0,15461.0,101,-0.4537760416666643,-0.065643310546875,-0.8333333333333321,-0.5,0.33333333333333326,-0.5,-0.4537760416666643,-0.065643310546875,-0.8333333333333321,0,0,0,0,1,0,0,1,0,1,0,0,1,0,33
34,0.0,47,51,5,4,4,1,2,0,0,0,0.66042,0,0,15466.0,15466.0,15467.0,15468.0,15469.0,101,1.9309895833333357,2.2606201171875,1.4999999999999982,1.5,2.333333333333333,1.5,-1.9309895833333357,-2.2606201171875,-1.4999999999999982,0,0,0,0,0,0,1,1,0,0,0,1,0,1,34
35,1.0,51,51,4,5,2,1,3,0,0,0,2.5660000000000003,0,0,15473.0,15474.0,15477.0,15481.0,15482.0,101,-0.6067708333333339,0.01416015625,-1.333333333333334,-0.5,0.33333333333333326,-0.5,-0.6067708333333339,-0.01416015625,-1.333333333333334,0,0,0,0,1,0,0,1,0,1,0,0,1,0,35
36,0.0,51,55,5,4,4,1,0,0,1,2,0.5309699999999999,0,0,15487.0,15487.0,15488.0,15491.0,15492.0,101,2.159830729166668,2.31060791015625,1.7916666666666679,1.5,2.333333333333333,2.333333333333333,-2.159830729166668,-2.31060791015625,-1.7916666666666679,0,0,0,0,0,0,1,1,0,0,0,1,0,1,36
37,1.0,55,55,4,5,1,1,1,0,1,2,0.92043,0,0,15497.0,15498.0,15499.0,15501.0,15502.0,101,-1.1803385416666679,-0.919189453125,-1.8333333333333321,-1.5,-0.6666666666666667,-0.590909090909091,-1.1803385416666679,-0.919189453125,-1.8333333333333321,0,0,0,1,0,0,0,1,1,0,0,0,0,1,37
38,0.0,55,58,5,4,3,1,2,0,1,2,0.63978,0,0,15505.0,15505.0,15506.0,15511.0,15512.0,101,0.9752604166666661,1.45947265625,0.4999999999999982,0.5,1.3333333333333333,1.5,-0.9752604166666661,-1.45947265625,-0.4999999999999982,0,0,0,0,0,1,0,1,0,0,1,0,1,0,38
39,1.0,58,58,4,5,1,1,3,0,1,2,3.0839,0,0,15516.0,15517.0,15520.0,15521.0,15522.0,101,-1.549479166666666,-0.720703125,-2.333333333333334,-1.5,-0.6666666666666667,-0.38888888888888884,-1.549479166666666,-0.720703125,-2.333333333333334,0,0,0,1,0,0,0,1,1,0,0,0,0,1,39
40,1.0,58,58,5,6,1,2,0,1,1,3,2.6237,0,0,15524.0,15525.0,15528.0,15530.0,15531.0,101,-1.56396484375,-1.377685546875,-1.5104166666666679,-1.5,-1.1666666666666667,-0.75,-1.56396484375,-1.377685546875,-1.5104166666666679,0,0,0,1,0,0,0,1,1,0,0,0,0,1,40
41,0.0,58,62,6,4,4,2,1,1,1,3,0.60138,0,0,15533.0,15534.0,15535.0,15537.0,15538.0,101,2.04541015625,2.63018798828125,2.958333333333332,1.5,0.33333333333333326,0.75,-2.04541015625,-2.63018798828125,-2.958333333333332,1,0,0,0,0,0,0,0,0,0,0,1,0,1,41
42,1.0,62,62,4,5,2,2,2,1,1,3,1.6512,0,0,15542.0,15543.0,15545.0,15550.0,15552.0,101,-1.068359375,-0.7818603515625,-3.0,-0.5,-0.6666666666666667,-0.25,-1.068359375,-0.7818603515625,-3.0,0,0,0,0,1,0,0,1,0,1,0,0,1,0,42
43,,62,62,5,5,4,2,3,1,1,3,,1,0,15555.0,15556.0,0.0,15561.0,15562.0,101,1.2578125,1.61474609375,-1.0,1.5,0.33333333333333326,0.75,-1.2578125,-1.61474609375,-1.0,0,0,0,0,0,0,1,1,0,0,0,1,0,1,43
44,1.0,62,62,5,6,1,2,0,1,0,1,1.5884,0,0,15566.0,15566.0,15568.0,15570.0,15571.0,101,-1.5735677083333357,-1.4598503112792969,-1.5104166666666679,-1.5,-1.1666666666666667,-1.1666666666666667,-1.5735677083333357,-1.4598503112792969,-1.5104166666666679,0,0,0,1,0,0,0,1,1,0,0,0,0,1,44
45,0.0,62,66,6,4,4,2,1,1,0,1,0.62237,0,0,15575.0,15576.0,15577.0,15580.0,15581.0,101,2.519694010416668,2.5171661376953125,2.958333333333332,1.5,0.33333333333333326,0.25,-2.519694010416668,-2.5171661376953125,-2.958333333333332,1,0,0,0,0,0,0,0,0,0,0,1,0,1,45
46,1.0,66,66,4,5,1,2,2,1,0,1,1.3161,0,0,15584.0,15585.0,15586.0,15589.0,15590.0,101,-2.751953125,-2.14208984375,-4.0,-1.5,-1.1666666666666667,-1.375,-2.751953125,-2.14208984375,-4.0,0,0,0,1,0,0,0,1,1,0,0,0,0,1,46
47,1.0,66,66,5,6,1,2,3,1,0,1,0.91699,0,0,15594.0,15595.0,15595.0,15599.0,15600.0,101,-2.669270833333332,-1.7841796875,-4.0,-1.5,-1.1666666666666667,-1.5833333333333335,-2.669270833333332,-1.7841796875,-4.0,0,0,0,1,0,0,0,1,1,0,0,0,0,1,47
48,0.0,66,67,6,5,1,1,0,0,0,0,1.8635,0,0,15605.0,15605.0,15607.0,15611.0,15612.0,101,0.25244140624999645,0.23842620849609375,0.20833333333333393,-1.5,-0.6666666666666667,-1.5,-0.25244140624999645,-0.23842620849609375,-0.20833333333333393,1,0,0,0,0,0,0,0,1,0,0,0,0,1,48
49,1.0,67,67,5,6,2,1,1,0,0,0,2.169,0,0,15616.0,15617.0,15619.0,15623.0,15624.0,101,-0.0234375,0.234039306640625,-0.3333333333333339,-0.5,0.33333333333333326,-0.5,-0.0234375,-0.234039306640625,-0.3333333333333339,0,0,0,0,1,0,0,1,0,1,0,0,1,0,49
50,0.0,67,68,6,5,1,1,2,0,0,0,0.86495,0,0,15628.0,15628.0,15629.0,15631.0,15632.0,101,0.234375,0.25836181640625,0.16666666666666607,-1.5,-0.6666666666666667,-1.5,-0.234375,-0.25836181640625,-0.16666666666666607,1,0,0,0,0,0,0,0,1,0,0,0,0,1,50
51,1.0,68,68,5,6,1,1,3,0,0,0,1.7305,0,0,15635.0,15635.0,15637.0,15641.0,15642.0,101,-1.125,-0.719970703125,-2.333333333333333,-1.5,-0.6666666666666667,-1.5,-1.125,-0.719970703125,-2.333333333333333,0,0,0,1,0,0,0,1,1,0,0,0,0,1,51
52,0.0,68,72,6,5,4,1,0,0,1,2,0.62334,0,0,15644.0,15645.0,15646.0,15649.0,15650.0,101,3.211344401041668,3.207874298095703,3.208333333333332,1.5,2.333333333333333,2.333333333333333,-3.211344401041668,-3.207874298095703,-3.208333333333332,1,0,0,0,0,0,0,0,0,0,0,1,0,1,52
53,0.0,72,76,5,4,4,1,1,0,1,2,0.56086,0,0,15655.0,15655.0,15656.0,15658.0,15659.0,101,2.474934895833332,2.3491058349609375,1.666666666666666,1.5,2.333333333333333,2.409090909090909,-2.474934895833332,-2.3491058349609375,-1.666666666666666,0,0,0,0,0,0,1,1,0,0,0,1,0,1,53
54,1.0,76,76,4,5,1,1,2,0,1,2,2.3533,0,0,15661.0,15661.0,15664.0,15665.0,15666.0,101,-0.6302083333333357,-0.86785888671875,-2.333333333333334,-1.5,-0.6666666666666667,-0.5,-0.6302083333333357,-0.86785888671875,-2.333333333333334,0,0,0,1,0,0,0,1,1,0,0,0,0,1,54
55,0.0,76,79,5,4,3,1,3,0,1,2,0.54532,0,0,15670.0,15670.0,15671.0,15674.0,15675.0,101,1.4635416666666679,1.50146484375,-0.33333333333333215,0.5,1.3333333333333333,1.6111111111111112,-1.4635416666666679,-1.50146484375,-0.33333333333333215,0,0,0,0,0,1,0,1,0,0,1,0,1,0,55
56,1.0,79,79,4,5,2,2,0,1,1,3,1.9986,0,0,15677.0,15678.0,15680.0,15685.0,15686.0,101,-0.7720540364583357,-0.7949142456054688,-1.1041666666666679,-0.5,-0.6666666666666667,-0.25,-0.7720540364583357,-0.7949142456054688,-1.1041666666666679,0,0,0,0,1,0,0,1,0,1,0,0,1,0,56
57,1.0,79,79,5,6,1,2,1,1,1,3,1.7593,0,0,15691.0,15691.0,15693.0,15695.0,15696.0,101,-1.3238932291666679,-1.403900146484375,-1.708333333333334,-1.5,-1.1666666666666667,-0.75,-1.3238932291666679,-1.403900146484375,-1.708333333333334,0,0,0,1,0,0,0,1,1,0,0,0,0,1,57
58,0.0,79,82,6,4,3,2,2,1,1,3,0.63143,0,0,15701.0,15701.0,15702.0,15705.0,15706.0,101,1.9583333333333304,1.546875,1.166666666666666,0.5,-0.16666666666666674,0.25,-1.9583333333333304,-1.546875,-1.166666666666666,1,0,0,0,0,0,0,0,0,0,1,0,1,0,58
59,1.0,82,82,4,5,1,2,3,1,1,3,1.0206,0,0,15710.0,15710.0,15711.0,15713.0,15714.0,101,-2.005208333333334,-1.824951171875,-4.0,-1.5,-1.1666666666666667,-0.75,-2.005208333333334,-1.824951171875,-4.0,0,0,0,1,0,0,0,1,1,0,0,0,0,1,59
60,0.0,82,86,5,3,4,2,0,1,0,1,0.52056,0,0,15717.0,15718.0,15718.0,15722.0,15723.0,101,1.4264322916666643,1.5401496887207031,1.4895833333333321,1.5,0.33333333333333326,0.33333333333333326,-1.4264322916666643,-1.5401496887207031,-1.4895833333333321,0,0,0,0,0,0,1,1,0,0,0,1,0,1,60
61,1.0,86,86,3,4,2,2,1,1,0,1,1.3827,0,0,15726.0,15726.0,15728.0,15730.0,15731.0,101,-1.81396484375,-1.3565673828125,-3.0,-0.5,-0.6666666666666667,-0.75,-1.81396484375,-1.3565673828125,-3.0,0,0,0,0,1,0,0,1,0,1,0,0,1,0,61
62,0.0,86,89,4,2,3,2,2,1,0,1,0.63752,0,0,15735.0,15735.0,15736.0,15739.0,15740.0,101,-0.751953125,-0.14208984375,-2.0,0.5,-0.16666666666666674,-0.375,-0.751953125,-0.14208984375,-2.0,0,0,0,0,0,1,0,1,0,0,1,0,1,0,62
63,1.0,89,89,2,3,2,2,3,1,0,1,2.3658,0,0,15742.0,15742.0,15745.0,15749.0,15750.0,101,-2.955729166666668,-2.103515625,-3.0,-0.5,-0.6666666666666667,-1.0833333333333335,-2.955729166666668,-2.103515625,-3.0,0,0,0,0,1,0,0,1,0,1,0,0,1,0,63
64,0.0,89,93,3,2,4,1,0,0,0,0,0.72253,0,0,15752.0,15752.0,15753.0,15758.0,15759.0,101,1.2710774739583357,1.6498870849609375,0.9895833333333321,1.5,2.333333333333333,1.5,-1.2710774739583357,-1.6498870849609375,-0.9895833333333321,0,0,0,0,0,0,1,1,0,0,0,1,0,1,64
65,1.0,93,93,2,3,1,1,1,0,0,0,1.0761,0,0,15762.0,15763.0,15764.0,15769.0,15770.0,101,-2.0081380208333357,-1.63458251953125,-2.375000000000001,-1.5,-0.6666666666666667,-1.5,-2.0081380208333357,-1.63458251953125,-2.375000000000001,0,0,0,1,0,0,0,1,1,0,0,0,0,1,65
66,0.0,93,96,3,2,3,1,2,0,0,0,0.68714,0,0,15772.0,15773.0,15773.0,15777.0,15778.0,101,0.16145833333333215,0.7384033203125,-0.33333333333333215,0.5,1.3333333333333333,0.5,-0.16145833333333215,-0.7384033203125,-0.33333333333333215,0,0,0,0,0,1,0,1,0,0,1,0,1,0,66
67,0.0,96,100,2,1,4,1,3,0,0,0,3.4641,0,0,15782.0,15783.0,15786.0,15788.0,15789.0,101,0.859375,1.4697265625,0.666666666666667,1.5,2.333333333333333,1.5,-0.859375,-1.4697265625,-0.666666666666667,0,0,0,0,0,0,1,1,0,0,0,1,0,1,67
68,1.0,100,100,1,2,1,1,0,0,1,2,0.92311,0,0,15794.0,15794.0,15795.0,15797.0,15798.0,101,-2.036783854166668,-1.989013671875,-2.531250000000001,-1.5,-0.6666666666666667,-0.6666666666666667,-2.036783854166668,-1.989013671875,-2.531250000000001,0,0,0,1,0,0,0,1,1,0,0,0,0,1,68
69,1.0,100,100,2,3,2,1,1,0,1,2,2.9537,0,0,15802.0,15802.0,15805.0,15807.0,15808.0,101,-0.5735677083333321,-0.47802734375,-1.3750000000000009,-0.5,0.33333333333333326,0.40909090909090895,-0.5735677083333321,-0.47802734375,-1.3750000000000009,0,0,0,0,1,0,0,1,0,1,0,0,1,0,69
70,1.0,100,100,3,4,1,1,2,0,1,2,1.2892,0,0,15811.0,15811.0,15813.0,15817.0,15818.0,101,-1.3359374999999982,-1.068115234375,-2.333333333333333,-1.5,-0.6666666666666667,-0.5,-1.3359374999999982,-1.068115234375,-2.333333333333333,0,0,0,1,0,0,0,1,1,0,0,0,0,1,70
71,0.0,100,102,4,3,2,1,3,0,1,2,2.6554,0,0,15822.0,15822.0,15825.0,15827.0,15828.0,101,-0.5494791666666661,0.279296875,-1.333333333333334,-0.5,0.33333333333333326,0.6111111111111112,-0.5494791666666661,-0.279296875,-1.333333333333334,0,0,0,0,1,0,0,1,0,1,0,0,1,0,71
72,0.0,102,105,3,1,3,2,0,1,1,3,0.75973,0,0,15832.0,15832.0,15833.0,15837.0,15838.0,101,-0.17854817708333393,-0.1503143310546875,-0.71875,0.5,-0.16666666666666674,0.25,-0.17854817708333393,-0.1503143310546875,-0.71875,0,0,0,0,0,1,0,1,0,0,1,0,1,0,72
73,1.0,105,105,1,2,4,2,1,1,1,3,1.4607,0,0,15843.0,15844.0,15845.0,15847.0,15848.0,101,-1.9554036458333357,-2.357330322265625,-3.3333333333333335,1.5,0.33333333333333326,0.75,-1.9554036458333357,-2.357330322265625,-3.3333333333333335,0,0,1,0,0,0,0,0,0,0,0,1,0,1,73
74,1.0,105,105,2,3,1,2,2,1,1,3,1.2281,0,0,15852.0,15853.0,15854.0,15859.0,15860.0,101,-2.4960937500000018,-2.3719482421875,-4.0,-1.5,-1.1666666666666667,-0.75,-2.4960937500000018,-2.3719482421875,-4.0,0,0,0,1,0,0,0,1,1,0,0,0,0,1,74
75,1.0,105,105,3,4,2,2,3,1,1,3,1.4524,0,0,15864.0,15865.0,15866.0,15869.0,15870.0,101,-1.3281250000000018,-1.16259765625,-3.0,-0.5,-0.6666666666666667,-0.25,-1.3281250000000018,-1.16259765625,-3.0,0,0,0,0,1,0,0,1,0,1,0,0,1,0,75
76,1.0,105,105,4,5,2,2,0,1,1,3,2.5278,0,0,15873.0,15873.0,15876.0,15878.0,15879.0,101,-0.7720540364583357,-0.7949142456054688,-1.1041666666666679,-0.5,-0.6666666666666667,-0.25,-0.7720540364583357,-0.7949142456054688,-1.1041666666666679,0,0,0,0,1,0,0,1,0,1,0,0,1,0,76
77,1.0,105,105,5,6,2,2,1,1,1,3,2.5586,0,0,15882.0,15883.0,15885.0,15887.0,15888.0,101,-0.32389322916666785,-0.403900146484375,-0.7083333333333339,-0.5,-0.6666666666666667,-0.25,-0.32389322916666785,-0.403900146484375,-0.7083333333333339,0,0,0,0,1,0,0,1,0,1,0,0,1,0,77
78,0.0,105,106,6,4,1,2,2,1,1,3,0.81106,0,0,15893.0,15893.0,15894.0,15898.0,15899.0,101,-0.04166666666666963,-0.453125,-0.8333333333333339,-1.5,-1.1666666666666667,-0.75,-0.04166666666666963,-0.453125,-0.8333333333333339,1,0,0,0,0,0,0,0,1,0,0,0,0,1,78
79,1.0,106,106,4,5,2,2,3,1,1,3,1.6845,0,0,15901.0,15901.0,15903.0,15906.0,15907.0,101,-1.005208333333334,-0.824951171875,-3.0,-0.5,-0.6666666666666667,-0.25,-1.005208333333334,-0.824951171875,-3.0,0,0,0,0,1,0,0,1,0,1,0,0,1,0,79
80,,106,106,5,5,2,2,0,1,0,1,,1,0,16055.0,16056.0,0.0,16061.0,16062.0,101,-0.5735677083333357,-0.4598503112792969,-0.5104166666666679,-0.5,-0.6666666666666667,-0.6666666666666667,-0.5735677083333357,-0.4598503112792969,-0.5104166666666679,0,0,0,0,1,0,0,1,0,1,0,0,1,0,80
81,0.0,106,110,5,3,4,2,1,1,0,1,0.67119,0,0,16065.0,16065.0,16066.0,16070.0,16071.0,101,1.3125,1.5290374755859375,1.291666666666666,1.5,0.33333333333333326,0.25,-1.3125,-1.5290374755859375,-1.291666666666666,0,0,0,0,0,0,1,1,0,0,0,1,0,1,81
82,1.0,110,110,3,4,2,2,2,1,0,1,1.7788,0,0,16074.0,16075.0,16077.0,16080.0,16081.0,101,-2.0312500000000018,-1.3441162109375,-3.0,-0.5,-0.6666666666666667,-0.875,-2.0312500000000018,-1.3441162109375,-3.0,0,0,0,0,1,0,0,1,0,1,0,0,1,0,82
83,0.0,110,113,4,2,3,2,3,1,0,1,0.9251299999999999,0,0,16086.0,16086.0,16087.0,16090.0,16091.0,101,-1.0312500000000018,-0.12548828125,-2.0,0.5,-0.16666666666666674,-0.5833333333333335,-1.0312500000000018,-0.12548828125,-2.0,0,0,0,0,0,1,0,1,0,0,1,0,1,0,83
84,1.0,113,113,2,3,1,1,0,0,0,0,1.0762,0,0,16096.0,16096.0,16097.0,16102.0,16103.0,101,-1.98583984375,-1.6644287109375,-2.375,-1.5,-0.6666666666666667,-1.5,-1.98583984375,-1.6644287109375,-2.375,0,0,0,1,0,0,0,1,1,0,0,0,0,1,84
85,0.0,113,116,3,2,3,1,1,0,0,0,1.046,0,0,16105.0,16106.0,16107.0,16109.0,16110.0,101,0.197265625,0.692108154296875,-0.3333333333333339,0.5,1.3333333333333333,0.5,-0.197265625,-0.692108154296875,-0.3333333333333339,0,0,0,0,0,1,0,1,0,0,1,0,1,0,85
86,1.0,116,116,2,3,1,1,2,0,0,0,0.92891,0,0,16113.0,16114.0,16115.0,16119.0,16120.0,101,-2.1171875,-1.5838623046875,-2.333333333333334,-1.5,-0.6666666666666667,-1.5,-2.1171875,-1.5838623046875,-2.333333333333334,0,0,0,1,0,0,0,1,1,0,0,0,0,1,86
87,0.0,116,119,3,2,3,1,3,0,0,0,1.1597,0,0,16123.0,16124.0,16125.0,16129.0,16130.0,101,0.03125,0.796142578125,-0.33333333333333304,0.5,1.3333333333333333,0.5,-0.03125,-0.796142578125,-0.33333333333333304,0,0,0,0,0,1,0,1,0,0,1,0,1,0,87
88,0.0,119,122,2,1,3,1,0,0,1,2,1.6009,0,0,16133.0,16134.0,16135.0,16138.0,16139.0,101,0.4218750000000018,0.5794754028320312,-0.375,0.5,1.3333333333333333,1.3333333333333333,-0.4218750000000018,-0.5794754028320312,-0.375,0,0,0,0,0,1,0,1,0,0,1,0,1,0,88
89,0.0,122,125,1,0,3,1,1,0,1,2,1.5189,0,0,16143.0,16143.0,16145.0,16148.0,16149.0,101,0.0006510416666678509,0.187957763671875,-0.5,0.5,1.3333333333333333,1.409090909090909,-0.0006510416666678509,-0.187957763671875,-0.5,0,0,0,0,0,1,0,1,0,0,1,0,1,0,89
90,1.0,125,125,0,1,4,1,2,0,1,2,0.90335,0,0,16153.0,16154.0,16155.0,16156.0,16157.0,101,-1.833333333333334,-1.7952880859375,-1.8333333333333333,1.5,2.333333333333333,2.5,-1.833333333333334,-1.7952880859375,-1.8333333333333333,0,1,0,0,0,0,0,0,0,0,0,1,0,1,90
91,1.0,125,125,1,2,1,1,3,0,1,2,2.1182,0,0,16160.0,16160.0,16163.0,16164.0,16165.0,101,-2.333333333333333,-1.252685546875,-2.3333333333333335,-1.5,-0.6666666666666667,-0.38888888888888884,-2.333333333333333,-1.252685546875,-2.3333333333333335,0,0,0,1,0,0,0,1,1,0,0,0,0,1,91
92,1.0,125,125,2,3,1,2,0,1,0,1,1.8078,0,0,16168.0,16169.0,16170.0,16173.0,16175.0,101,-2.8604736328125,-2.517425537109375,-4.0,-1.5,-1.1666666666666667,-1.1666666666666667,-2.8604736328125,-2.517425537109375,-4.0,0,0,0,1,0,0,0,1,1,0,0,0,0,1,92
93,1.0,125,125,3,4,2,2,1,1,0,1,1.6548,0,0,16177.0,16177.0,16179.0,16183.0,16184.0,101,-1.81396484375,-1.3565673828125,-3.0,-0.5,-0.6666666666666667,-0.75,-1.81396484375,-1.3565673828125,-3.0,0,0,0,0,1,0,0,1,0,1,0,0,1,0,93
94,1.0,125,125,4,5,2,2,2,1,0,1,1.8478,0,0,16189.0,16189.0,16191.0,16196.0,16197.0,101,-1.751953125,-1.14208984375,-3.0,-0.5,-0.6666666666666667,-0.875,-1.751953125,-1.14208984375,-3.0,0,0,0,0,1,0,0,1,0,1,0,0,1,0,94
95,0.0,125,129,5,3,4,2,3,1,0,1,0.92442,0,0,16199.0,16200.0,16201.0,16202.0,16203.0,101,0.33072916666666785,1.2158203125,-1.0,1.5,0.33333333333333326,-0.08333333333333348,-0.33072916666666785,-1.2158203125,-1.0,0,0,0,0,0,0,1,1,0,0,0,1,0,1,95
96,1.0,129,129,3,4,2,1,0,0,1,2,2.1361,0,0,16206.0,16206.0,16208.0,16212.0,16213.0,101,-0.376953125,-0.21881103515625,-1.0104166666666679,-0.5,0.33333333333333326,0.33333333333333326,-0.376953125,-0.21881103515625,-1.0104166666666679,0,0,0,0,1,0,0,1,0,1,0,0,1,0,96
97,1.0,129,129,4,5,1,1,1,0,1,2,2.3424,0,0,16216.0,16216.0,16219.0,16222.0,16223.0,101,-1.1803385416666679,-0.919189453125,-1.8333333333333321,-1.5,-0.6666666666666667,-0.590909090909091,-1.1803385416666679,-0.919189453125,-1.8333333333333321,0,0,0,1,0,0,0,1,1,0,0,0,0,1,97
98,0.0,129,132,5,4,3,1,2,0,1,2,0.7890699999999999,0,0,16225.0,16226.0,16227.0,16228.0,16229.0,101,0.9752604166666661,1.45947265625,0.4999999999999982,0.5,1.3333333333333333,1.5,-0.9752604166666661,-1.45947265625,-0.4999999999999982,0,0,0,0,0,1,0,1,0,0,1,0,1,0,98
99,,132,132,4,4,2,1,3,0,1,2,,1,0,16232.0,16233.0,0.0,16238.0,16239.0,101,-0.5494791666666661,0.279296875,-1.333333333333334,-0.5,0.33333333333333326,0.6111111111111112,-0.5494791666666661,-0.279296875,-1.333333333333334,0,0,0,0,1,0,0,1,0,1,0,0,1,0,99
100,1.0,132,132,4,5,2,2,0,1,1,3,1.2701,0,0,16242.0,16243.0,16244.0,16246.0,16247.0,101,-0.7720540364583357,-0.7949142456054688,-1.1041666666666679,-0.5,-0.6666666666666667,-0.25,-0.7720540364583357,-0.7949142456054688,-1.1041666666666679,0,0,0,0,1,0,0,1,0,1,0,0,1,0,100
101,0.0,132,136,5,3,4,2,1,1,1,3,0.57623,0,0,16252.0,16252.0,16253.0,16257.0,16258.0,101,1.6761067708333321,1.596099853515625,1.291666666666666,1.5,0.33333333333333326,0.75,-1.6761067708333321,-1.596099853515625,-1.291666666666666,0,0,0,0,0,0,1,1,0,0,0,1,0,1,101
102,1.0,136,136,3,4,2,2,2,1,1,3,1.4027,0,0,16263.0,16263.0,16265.0,16267.0,16268.0,101,-1.25390625,-1.1624755859375,-3.0,-0.5,-0.6666666666666667,-0.25,-1.25390625,-1.1624755859375,-3.0,0,0,0,0,1,0,0,1,0,1,0,0,1,0,102
103,0.0,136,140,4,2,4,2,3,1,1,3,0.87261,0,0,16270.0,16271.0,16271.0,16275.0,16276.0,101,0.9947916666666661,1.175048828125,-1.0,1.5,0.33333333333333326,0.75,-0.9947916666666661,-1.175048828125,-1.0,0,0,0,0,0,0,1,1,0,0,0,1,0,1,103
104,0.0,140,144,2,0,4,2,0,1,0,1,0.8923,0,0,16280.0,16280.0,16281.0,16283.0,16284.0,101,0.1395263671875,0.482574462890625,-1.0,1.5,0.33333333333333326,0.33333333333333326,-0.1395263671875,-0.482574462890625,-1.0,0,0,0,0,0,0,1,1,0,0,0,1,0,1,104
105,1.0,144,144,0,1,4,2,1,1,0,1,0.9847600000000001,0,0,16287.0,16287.0,16288.0,16292.0,16293.0,101,-1.4244791666666679,-1.1396484375,-1.6666666666666665,1.5,0.33333333333333326,0.25,-1.4244791666666679,-1.1396484375,-1.6666666666666665,0,0,1,0,0,0,0,0,0,0,0,1,0,1,105
106,1.0,144,144,1,2,3,2,2,1,0,1,1.8371,0,0,16296.0,16296.0,16298.0,16300.0,16301.0,101,-3.140625,-2.5302734375,-3.333333333333333,0.5,-0.16666666666666674,-0.375,-3.140625,-2.5302734375,-3.333333333333333,0,0,1,0,0,0,0,0,0,0,1,0,1,0,106
107,0.0,144,147,2,0,3,2,3,1,0,1,1.5582,0,0,16305.0,16306.0,16307.0,16311.0,16312.0,101,-1.9557291666666679,-1.103515625,-2.0,0.5,-0.16666666666666674,-0.5833333333333335,-1.9557291666666679,-1.103515625,-2.0,0,0,0,0,0,1,0,1,0,0,1,0,1,0,107
108,1.0,147,147,0,1,4,1,0,0,0,0,0.97131,0,0,16317.0,16317.0,16318.0,16322.0,16323.0,101,-1.8201497395833321,-1.6787872314453125,-1.833333333333333,1.5,2.333333333333333,1.5,-1.8201497395833321,-1.6787872314453125,-1.833333333333333,0,1,0,0,0,0,0,0,0,0,0,1,0,1,108
109,1.0,147,147,1,2,1,1,1,0,0,0,1.2263,0,0,16326.0,16327.0,16328.0,16332.0,16333.0,101,-2.337890625,-2.04193115234375,-2.5,-1.5,-0.6666666666666667,-1.5,-2.337890625,-2.04193115234375,-2.5,0,0,0,1,0,0,0,1,1,0,0,0,0,1,109
110,0.0,147,151,2,1,4,1,2,0,0,0,0.84956,0,0,16338.0,16338.0,16339.0,16342.0,16343.0,101,0.8828125,1.4161376953125,0.6666666666666661,1.5,2.333333333333333,1.5,-0.8828125,-1.4161376953125,-0.6666666666666661,0,0,0,0,0,0,1,1,0,0,0,1,0,1,110
111,1.0,151,151,1,2,2,1,3,0,0,0,1.0455,0,0,16346.0,16347.0,16348.0,16349.0,16350.0,101,-1.53125,-0.9638671875,-1.3333333333333335,-0.5,0.33333333333333326,-0.5,-1.53125,-0.9638671875,-1.3333333333333335,0,0,0,0,1,0,0,1,0,1,0,0,1,0,111
112,1.0,151,151,2,3,1,1,0,0,1,2,1.7414,0,0,16354.0,16355.0,16356.0,16358.0,16359.0,101,-1.5781249999999982,-1.4205245971679688,-2.375,-1.5,-0.6666666666666667,-0.6666666666666667,-1.5781249999999982,-1.4205245971679688,-2.375,0,0,0,1,0,0,0,1,1,0,0,0,0,1,112
113,1.0,151,151,3,4,2,1,1,0,1,2,1.6509,0,0,16363.0,16364.0,16365.0,16370.0,16371.0,101,-0.15690104166666785,-0.0290069580078125,-1.333333333333334,-0.5,0.33333333333333326,0.40909090909090895,-0.15690104166666785,-0.0290069580078125,-1.333333333333334,0,0,0,0,1,0,0,1,0,1,0,0,1,0,113
114,1.0,151,151,4,5,1,1,2,0,1,2,2.1125,0,0,16375.0,16375.0,16377.0,16379.0,16380.0,101,-0.6302083333333357,-0.86785888671875,-2.333333333333334,-1.5,-0.6666666666666667,-0.5,-0.6302083333333357,-0.86785888671875,-2.333333333333334,0,0,0,1,0,0,0,1,1,0,0,0,0,1,114
115,0.0,151,154,5,4,3,1,3,0,1,2,0.76081,0,0,16384.0,16385.0,16385.0,16390.0,16391.0,101,1.4635416666666679,1.50146484375,-0.33333333333333215,0.5,1.3333333333333333,1.6111111111111112,-1.4635416666666679,-1.50146484375,-0.33333333333333215,0,0,0,0,0,1,0,1,0,0,1,0,1,0,115
116,1.0,154,154,4,5,2,2,0,1,1,3,1.2612,0,0,16395.0,16395.0,16397.0,16400.0,16401.0,101,-0.7720540364583357,-0.7949142456054688,-1.1041666666666679,-0.5,-0.6666666666666667,-0.25,-0.7720540364583357,-0.7949142456054688,-1.1041666666666679,0,0,0,0,1,0,0,1,0,1,0,0,1,0,116
117,0.0,154,158,5,3,4,2,1,1,1,3,1.0986,0,0,16403.0,16404.0,16405.0,16410.0,16411.0,101,1.6761067708333321,1.596099853515625,1.291666666666666,1.5,0.33333333333333326,0.75,-1.6761067708333321,-1.596099853515625,-1.291666666666666,0,0,0,0,0,0,1,1,0,0,0,1,0,1,117
118,0.0,158,161,3,1,3,2,2,1,1,3,1.0981,0,0,16413.0,16414.0,16415.0,16416.0,16417.0,101,-0.25390625,-0.1624755859375,-2.0,0.5,-0.16666666666666674,0.25,-0.25390625,-0.1624755859375,-2.0,0,0,0,0,0,1,0,1,0,0,1,0,1,0,118
119,1.0,161,161,1,2,3,2,3,1,1,3,1.1124,0,0,16422.0,16423.0,16424.0,16427.0,16428.0,101,-3.333333333333333,-2.252685546875,-3.3333333333333335,0.5,-0.16666666666666674,0.25,-3.333333333333333,-2.252685546875,-3.3333333333333335,0,0,1,0,0,0,0,0,0,0,1,0,1,0,119
120,0.0,161,165,2,0,4,2,0,1,0,1,2.0968,0,0,16430.0,16431.0,16433.0,16434.0,16435.0,101,0.1395263671875,0.482574462890625,-1.0,1.5,0.33333333333333326,0.33333333333333326,-0.1395263671875,-0.482574462890625,-1.0,0,0,0,0,0,0,1,1,0,0,0,1,0,1,120
121,1.0,165,165,0,1,1,2,1,1,0,1,0.9103600000000001,0,0,16438.0,16438.0,16439.0,16444.0,16445.0,101,-1.4244791666666679,-1.1396484375,-1.6666666666666665,-1.5,-1.1666666666666667,-1.25,-1.4244791666666679,-1.1396484375,-1.6666666666666665,0,0,1,0,0,0,0,0,1,0,0,0,0,1,121
122,1.0,165,165,1,2,1,2,2,1,0,1,0.8226100000000001,0,0,16449.0,16449.0,16450.0,16451.0,16452.0,101,-3.140625,-2.5302734375,-3.333333333333333,-1.5,-1.1666666666666667,-1.375,-3.140625,-2.5302734375,-3.333333333333333,0,0,1,0,0,0,0,0,1,0,0,0,0,1,122
123,0.0,165,168,2,0,3,2,3,1,0,1,1.0717,0,0,16456.0,16457.0,16458.0,16462.0,16463.0,101,-1.9557291666666679,-1.103515625,-2.0,0.5,-0.16666666666666674,-0.5833333333333335,-1.9557291666666679,-1.103515625,-2.0,0,0,0,0,0,1,0,1,0,0,1,0,1,0,123
124,1.0,168,168,0,1,3,1,0,0,0,0,1.1045,0,0,16467.0,16468.0,16469.0,16473.0,16474.0,101,-1.8201497395833321,-1.6787872314453125,-1.833333333333333,0.5,1.3333333333333333,0.5,-1.8201497395833321,-1.6787872314453125,-1.833333333333333,0,1,0,0,0,0,0,0,0,0,1,0,1,0,124
125,0.0,168,172,1,0,4,1,1,0,0,0,1.0658,0,0,16477.0,16477.0,16478.0,16483.0,16484.0,101,0.662109375,0.95806884765625,0.5,1.5,2.333333333333333,1.5,-0.662109375,-0.95806884765625,-0.5,0,0,0,0,0,0,1,1,0,0,0,1,0,1,125
126,1.0,172,172,0,1,3,1,2,0,0,0,1.0041,0,0,16487.0,16488.0,16489.0,16490.0,16491.0,101,-1.8333333333333321,-1.65869140625,-1.8333333333333333,0.5,1.3333333333333333,0.5,-1.8333333333333321,-1.65869140625,-1.8333333333333333,0,1,0,0,0,0,0,0,0,0,1,0,1,0,126
127,0.0,172,176,1,0,4,1,3,0,0,0,1.5582,0,0,16494.0,16495.0,16496.0,16499.0,16500.0,101,0.46875,1.0361328125,0.6666666666666665,1.5,2.333333333333333,1.5,-0.46875,-1.0361328125,-0.6666666666666665,0,0,0,0,0,0,1,1,0,0,0,1,0,1,127
128,1.0,176,176,0,1,2,1,0,0,1,2,0.94655,0,0,16505.0,16505.0,16506.0,16508.0,16509.0,101,-1.9274088541666679,-1.7573394775390625,-1.833333333333333,-0.5,0.33333333333333326,0.33333333333333326,-1.9274088541666679,-1.7573394775390625,-1.833333333333333,0,1,0,0,0,0,0,0,0,1,0,0,1,0,128
129,1.0,176,176,1,2,2,1,1,0,1,2,0.90866,0,0,16512.0,16512.0,16513.0,16518.0,16519.0,101,-0.9993489583333321,-0.812042236328125,-1.5,-0.5,0.33333333333333326,0.40909090909090895,-0.9993489583333321,-0.812042236328125,-1.5,0,0,0,0,1,0,0,1,0,1,0,0,1,0,129
130,1.0,176,176,2,3,2,1,2,0,1,2,1.0984,0,0,16523.0,16524.0,16525.0,16528.0,16529.0,101,-0.4986979166666661,-0.12408447265625,-1.333333333333334,-0.5,0.33333333333333326,0.5,-0.4986979166666661,-0.12408447265625,-1.333333333333334,0,0,0,0,1,0,0,1,0,1,0,0,1,0,130
131,1.0,176,176,3,4,2,1,3,0,1,2,2.3022,0,0,16532.0,16533.0,16535.0,16540.0,16541.0,101,0.3385416666666643,0.009033203125,-1.333333333333333,-0.5,0.33333333333333326,0.6111111111111112,-0.3385416666666643,-0.009033203125,-1.333333333333333,0,0,0,0,1,0,0,1,0,1,0,0,1,0,131
132,0.0,176,180,4,2,4,2,0,1,1,3,1.0255,0,0,16544.0,16545.0,16546.0,16547.0,16548.0,101,1.2279459635416643,1.2050857543945312,0.8958333333333321,1.5,0.33333333333333326,0.75,-1.2279459635416643,-1.2050857543945312,-0.8958333333333321,0,0,0,0,0,0,1,1,0,0,0,1,0,1,132
133,0.0,180,184,2,0,4,2,1,1,1,3,1.3202,0,0,16551.0,16551.0,16553.0,16555.0,16556.0,101,0.5595703125,0.628143310546875,-1.0,1.5,0.33333333333333326,0.75,-0.5595703125,-0.628143310546875,-1.0,0,0,0,0,0,0,1,1,0,0,0,1,0,1,133
134,1.0,184,184,0,1,1,2,2,1,1,3,0.95036,0,0,16559.0,16560.0,16561.0,16562.0,16563.0,101,-1.666666666666666,-1.171630859375,-1.6666666666666667,-1.5,-1.1666666666666667,-0.75,-1.666666666666666,-1.171630859375,-1.6666666666666667,0,0,1,0,0,0,0,0,1,0,0,0,0,1,134
135,1.0,184,184,1,2,2,2,3,1,1,3,1.0961,0,0,16567.0,16567.0,16568.0,16570.0,16571.0,101,-3.333333333333333,-2.252685546875,-3.3333333333333335,-0.5,-0.6666666666666667,-0.25,-3.333333333333333,-2.252685546875,-3.3333333333333335,0,0,1,0,0,0,0,0,0,1,0,0,1,0,135
136,1.0,184,184,2,3,1,2,0,1,0,1,0.82614,0,0,16573.0,16574.0,16575.0,16579.0,16580.0,101,-2.8604736328125,-2.517425537109375,-4.0,-1.5,-1.1666666666666667,-1.1666666666666667,-2.8604736328125,-2.517425537109375,-4.0,0,0,0,1,0,0,0,1,1,0,0,0,0,1,136
137,0.0,184,188,3,1,4,2,1,1,0,1,0.72414,0,0,16584.0,16585.0,16585.0,16589.0,16590.0,101,0.18603515625,0.6434326171875,-1.0,1.5,0.33333333333333326,0.25,-0.18603515625,-0.6434326171875,-1.0,0,0,0,0,0,0,1,1,0,0,0,1,0,1,137
138,1.0,188,188,1,2,4,2,2,1,0,1,1.6661,0,0,16592.0,16593.0,16594.0,16598.0,16599.0,101,-3.140625,-2.5302734375,-3.333333333333333,1.5,0.33333333333333326,0.125,-3.140625,-2.5302734375,-3.333333333333333,0,0,1,0,0,0,0,0,0,0,0,1,0,1,138
139,1.0,188,188,2,3,2,2,3,1,0,1,3.2172,0,0,16602.0,16602.0,16606.0,16607.0,16608.0,101,-2.955729166666668,-2.103515625,-3.0,-0.5,-0.6666666666666667,-1.0833333333333335,-2.955729166666668,-2.103515625,-3.0,0,0,0,0,1,0,0,1,0,1,0,0,1,0,139
140,1.0,188,188,3,4,2,1,0,0,0,0,1.3447,0,0,16612.0,16613.0,16614.0,16618.0,16619.0,101,-0.7289225260416643,-0.3501129150390625,-1.0104166666666679,-0.5,0.33333333333333326,-0.5,-0.7289225260416643,-0.3501129150390625,-1.0104166666666679,0,0,0,0,1,0,0,1,0,1,0,0,1,0,140
141,1.0,188,188,4,5,1,1,1,0,0,0,1.7590000000000001,0,0,16622.0,16623.0,16624.0,16628.0,16629.0,101,-1.4537760416666643,-1.065643310546875,-1.8333333333333321,-1.5,-0.6666666666666667,-1.5,-1.4537760416666643,-1.065643310546875,-1.8333333333333321,0,0,0,1,0,0,0,1,1,0,0,0,0,1,141
142,1.0,188,188,5,6,1,1,2,0,0,0,3.1065,0,0,16632.0,16632.0,16635.0,16638.0,16639.0,101,-1.0690104166666643,-0.7393798828125,-1.5000000000000018,-1.5,-0.6666666666666667,-1.5,-1.0690104166666643,-0.7393798828125,-1.5000000000000018,0,0,0,1,0,0,0,1,1,0,0,0,0,1,142
143,0.0,188,191,6,5,3,1,3,0,0,0,0.75476,0,0,16643.0,16643.0,16644.0,16647.0,16648.0,101,1.9375,2.20166015625,1.333333333333334,0.5,1.3333333333333333,0.5,-1.9375,-2.20166015625,-1.333333333333334,1,0,0,0,0,0,0,0,0,0,1,0,1,0,143
144,1.0,191,191,5,6,1,1,0,0,1,2,2.1712,0,0,16651.0,16652.0,16654.0,16656.0,16657.0,101,-0.8401692708333321,-0.68939208984375,-1.2083333333333321,-1.5,-0.6666666666666667,-0.6666666666666667,-0.8401692708333321,-0.68939208984375,-1.2083333333333321,0,0,0,1,0,0,0,1,1,0,0,0,0,1,144
145,0.0,191,195,6,5,4,1,1,0,1,2,0.68782,0,0,16662.0,16662.0,16663.0,16664.0,16665.0,101,3.394856770833332,3.303955078125,2.833333333333332,1.5,2.333333333333333,2.409090909090909,-3.394856770833332,-3.303955078125,-2.833333333333332,1,0,0,0,0,0,0,0,0,0,0,1,0,1,145
146,0.0,195,199,5,4,4,1,2,0,1,2,0.9687600000000001,0,0,16670.0,16671.0,16672.0,16674.0,16675.0,101,1.975260416666666,2.45947265625,1.4999999999999982,1.5,2.333333333333333,2.5,-1.975260416666666,-2.45947265625,-1.4999999999999982,0,0,0,0,0,0,1,1,0,0,0,1,0,1,146
147,1.0,199,199,4,5,1,1,3,0,1,2,0.8793,0,0,16679.0,16680.0,16680.0,16682.0,16683.0,101,-1.549479166666666,-0.720703125,-2.333333333333334,-1.5,-0.6666666666666667,-0.38888888888888884,-1.549479166666666,-0.720703125,-2.333333333333334,0,0,0,1,0,0,0,1,1,0,0,0,0,1,147
148,1.0,199,199,5,6,2,2,0,1,1,3,1.9242,0,0,16686.0,16687.0,16688.0,16690.0,16691.0,101,-0.56396484375,-0.377685546875,-0.5104166666666679,-0.5,-0.6666666666666667,-0.25,-0.56396484375,-0.377685546875,-0.5104166666666679,0,0,0,0,1,0,0,1,0,1,0,0,1,0,148
149,0.0,199,202,6,4,3,2,1,1,1,3,0.72204,0,0,16695.0,16696.0,16696.0,16698.0,16699.0,101,1.04541015625,1.63018798828125,1.9583333333333321,0.5,-0.16666666666666674,0.25,-1.04541015625,-1.63018798828125,-1.9583333333333321,1,0,0,0,0,0,0,0,0,0,1,0,1,0,149
150,0.0,202,206,4,2,4,2,2,1,1,3,0.91525,0,0,16702.0,16702.0,16703.0,16706.0,16707.0,101,0.931640625,1.2181396484375,-1.0,1.5,0.33333333333333326,0.75,-0.931640625,-1.2181396484375,-1.0,0,0,0,0,0,0,1,1,0,0,0,1,0,1,150
151,0.0,206,209,2,0,3,2,3,1,1,3,2.0656,0,0,16711.0,16712.0,16714.0,16715.0,16716.0,101,-0.7890625,-0.35693359375,-2.0,0.5,-0.16666666666666674,0.25,-0.7890625,-0.35693359375,-2.0,0,0,0,0,0,1,0,1,0,0,1,0,1,0,151
152,1.0,209,209,0,1,1,2,0,1,1,3,0.81629,0,0,16721.0,16721.0,16722.0,16727.0,16728.0,101,-1.4469401041666679,-1.092315673828125,-1.666666666666667,-1.5,-1.1666666666666667,-0.75,-1.4469401041666679,-1.092315673828125,-1.666666666666667,0,0,1,0,0,0,0,0,1,0,0,0,0,1,152
153,1.0,209,209,1,2,1,2,1,1,1,3,0.78304,0,0,16732.0,16733.0,16734.0,16738.0,16739.0,101,-1.9554036458333357,-2.357330322265625,-3.3333333333333335,-1.5,-1.1666666666666667,-0.75,-1.9554036458333357,-2.357330322265625,-3.3333333333333335,0,0,1,0,0,0,0,0,1,0,0,0,0,1,153
154,0.0,209,213,2,0,4,2,2,1,1,3,0.92322,0,0,16742.0,16743.0,16744.0,16747.0,16748.0,101,0.5039062499999982,0.6280517578125,-1.0,1.5,0.33333333333333326,0.75,-0.5039062499999982,-0.6280517578125,-1.0,0,0,0,0,0,0,1,1,0,0,0,1,0,1,154
155,1.0,213,213,0,1,3,2,3,1,1,3,1.3425,0,0,16752.0,16752.0,16753.0,16756.0,16757.0,101,-1.666666666666667,-1.0810546875,-1.6666666666666667,0.5,-0.16666666666666674,0.25,-1.666666666666667,-1.0810546875,-1.6666666666666667,0,0,1,0,0,0,0,0,0,0,1,0,1,0,155
156,1.0,213,213,1,2,3,2,0,1,0,1,1.8378,0,0,16760.0,16760.0,16762.0,16764.0,16765.0,101,-2.606770833333334,-2.4914169311523438,-3.333333333333334,0.5,-0.16666666666666674,-0.16666666666666674,-2.606770833333334,-2.4914169311523438,-3.333333333333334,0,0,1,0,0,0,0,0,0,0,1,0,1,0,156
157,0.0,213,217,2,0,4,2,1,1,0,1,0.9908399999999999,0,0,16769.0,16769.0,16770.0,16775.0,16776.0,101,-0.031250000000001776,0.491912841796875,-1.0,1.5,0.33333333333333326,0.25,-0.031250000000001776,-0.491912841796875,-1.0,0,0,0,0,0,0,1,1,0,0,0,1,0,1,157
158,1.0,217,217,0,1,2,2,2,1,0,1,0.67083,0,0,16779.0,16779.0,16780.0,16783.0,16784.0,101,-1.7161458333333321,-1.390625,-1.6666666666666667,-0.5,-0.6666666666666667,-0.875,-1.7161458333333321,-1.390625,-1.6666666666666667,0,0,1,0,0,0,0,0,0,1,0,0,1,0,158
159,1.0,217,217,1,2,2,2,3,1,0,1,0.76155,0,0,16786.0,16787.0,16787.0,16789.0,16790.0,101,-3.53125,-2.9638671875,-3.3333333333333335,-0.5,-0.6666666666666667,-1.0833333333333335,-3.53125,-2.9638671875,-3.3333333333333335,0,0,1,0,0,0,0,0,0,1,0,0,1,0,159
160,1.0,217,217,2,3,1,1,0,0,0,0,1.5190000000000001,0,0,16919.0,16920.0,16921.0,16925.0,16926.0,101,-1.98583984375,-1.6644287109375,-2.375,-1.5,-0.6666666666666667,-1.5,-1.98583984375,-1.6644287109375,-2.375,0,0,0,1,0,0,0,1,1,0,0,0,0,1,160
161,0.0,217,220,3,2,3,1,1,0,0,0,1.0086,0,0,16930.0,16930.0,16931.0,16934.0,16935.0,101,0.197265625,0.692108154296875,-0.3333333333333339,0.5,1.3333333333333333,0.5,-0.197265625,-0.692108154296875,-0.3333333333333339,0,0,0,0,0,1,0,1,0,0,1,0,1,0,161
162,1.0,220,220,2,3,2,1,2,0,0,0,0.8744200000000001,0,0,16937.0,16938.0,16939.0,16941.0,16942.0,101,-1.1171875,-0.5838623046875,-1.333333333333334,-0.5,0.33333333333333326,-0.5,-1.1171875,-0.5838623046875,-1.333333333333334,0,0,0,0,1,0,0,1,0,1,0,0,1,0,162
163,1.0,220,220,3,4,1,1,3,0,0,0,0.72168,0,0,16945.0,16946.0,16947.0,16949.0,16950.0,101,-1.96875,-1.203857421875,-2.333333333333333,-1.5,-0.6666666666666667,-1.5,-1.96875,-1.203857421875,-2.333333333333333,0,0,0,1,0,0,0,1,1,0,0,0,0,1,163
164,0.0,220,223,4,3,3,1,0,0,1,2,3.9677,0,0,16954.0,16954.0,16958.0,16960.0,16961.0,101,1.040283203125,1.0727729797363281,0.24999999999999822,0.5,1.3333333333333333,1.3333333333333333,-1.040283203125,-1.0727729797363281,-0.24999999999999822,0,0,0,0,0,1,0,1,0,0,1,0,1,0,164
165,1.0,223,223,3,4,1,1,1,0,1,2,0.8462200000000001,0,0,16965.0,16965.0,16966.0,16968.0,16969.0,101,-1.1569010416666679,-1.0290069580078125,-2.333333333333334,-1.5,-0.6666666666666667,-0.590909090909091,-1.1569010416666679,-1.0290069580078125,-2.333333333333334,0,0,0,1,0,0,0,1,1,0,0,0,0,1,165
166,1.0,223,223,4,5,1,1,2,0,1,2,1.2301,0,0,16973.0,16973.0,16975.0,16979.0,16980.0,101,-0.6302083333333357,-0.86785888671875,-2.333333333333334,-1.5,-0.6666666666666667,-0.5,-0.6302083333333357,-0.86785888671875,-2.333333333333334,0,0,0,1,0,0,0,1,1,0,0,0,0,1,166
167,0.0,223,227,5,4,4,1,3,0,1,2,0.6843199999999999,0,0,16984.0,16985.0,16985.0,16990.0,16991.0,101,2.463541666666668,2.50146484375,0.6666666666666679,1.5,2.333333333333333,2.611111111111111,-2.463541666666668,-2.50146484375,-0.6666666666666679,0,0,0,0,0,0,1,1,0,0,0,1,0,1,167
168,1.0,227,227,4,5,1,2,0,1,0,1,0.8590700000000001,0,0,16993.0,16994.0,16995.0,16998.0,16999.0,101,-2.0937499999999982,-1.8625030517578125,-2.104166666666668,-1.5,-1.1666666666666667,-1.1666666666666667,-2.0937499999999982,-1.8625030517578125,-2.104166666666668,0,0,0,1,0,0,0,1,1,0,0,0,0,1,168
169,0.0,227,231,5,3,4,2,1,1,0,1,0.6533399999999999,0,0,17001.0,17002.0,17003.0,17004.0,17005.0,101,1.3125,1.5290374755859375,1.291666666666666,1.5,0.33333333333333326,0.25,-1.3125,-1.5290374755859375,-1.291666666666666,0,0,0,0,0,0,1,1,0,0,0,1,0,1,169
170,0.0,231,234,3,1,3,2,2,1,0,1,0.84483,0,0,17008.0,17008.0,17009.0,17011.0,17012.0,101,-1.0312500000000018,-0.3441162109375,-2.0,0.5,-0.16666666666666674,-0.375,-1.0312500000000018,-0.3441162109375,-2.0,0,0,0,0,0,1,0,1,0,0,1,0,1,0,170
171,1.0,234,234,1,2,4,2,3,1,0,1,1.6878,0,0,17016.0,17016.0,17018.0,17020.0,17021.0,101,-3.53125,-2.9638671875,-3.3333333333333335,1.5,0.33333333333333326,-0.08333333333333348,-3.53125,-2.9638671875,-3.3333333333333335,0,0,1,0,0,0,0,0,0,0,0,1,0,1,171
172,0.0,234,238,2,1,4,1,0,0,0,0,0.76565,0,0,17025.0,17026.0,17027.0,17031.0,17032.0,101,1.01416015625,1.3355712890625,0.625,1.5,2.333333333333333,1.5,-1.01416015625,-1.3355712890625,-0.625,0,0,0,0,0,0,1,1,0,0,0,1,0,1,172
173,1.0,238,238,1,2,2,1,1,0,0,0,0.76589,0,0,17035.0,17036.0,17037.0,17038.0,17039.0,101,-1.337890625,-1.04193115234375,-1.5,-0.5,0.33333333333333326,-0.5,-1.337890625,-1.04193115234375,-1.5,0,0,0,0,1,0,0,1,0,1,0,0,1,0,173
174,0.0,238,241,2,1,3,1,2,0,0,0,0.7767,0,0,17043.0,17044.0,17044.0,17046.0,17047.0,101,-0.1171875,0.4161376953125,-0.3333333333333339,0.5,1.3333333333333333,0.5,-0.1171875,-0.4161376953125,-0.3333333333333339,0,0,0,0,0,1,0,1,0,0,1,0,1,0,174
175,1.0,241,241,1,2,1,1,3,0,0,0,0.8579200000000001,0,0,17051.0,17051.0,17052.0,17054.0,17055.0,101,-2.53125,-1.9638671875,-2.3333333333333335,-1.5,-0.6666666666666667,-1.5,-2.53125,-1.9638671875,-2.3333333333333335,0,0,0,1,0,0,0,1,1,0,0,0,0,1,175
176,1.0,241,241,2,3,2,1,0,0,1,2,1.4945,0,0,17060.0,17060.0,17062.0,17066.0,17067.0,101,-0.5781249999999982,-0.42052459716796875,-1.375,-0.5,0.33333333333333326,0.33333333333333326,-0.5781249999999982,-0.42052459716796875,-1.375,0,0,0,0,1,0,0,1,0,1,0,0,1,0,176
177,1.0,241,241,3,4,1,1,1,0,1,2,0.87954,0,0,17070.0,17071.0,17072.0,17076.0,17077.0,101,-1.1569010416666679,-1.0290069580078125,-2.333333333333334,-1.5,-0.6666666666666667,-0.590909090909091,-1.1569010416666679,-1.0290069580078125,-2.333333333333334,0,0,0,1,0,0,0,1,1,0,0,0,0,1,177
178,1.0,241,241,4,5,2,1,2,0,1,2,3.3684,0,0,17080.0,17080.0,17083.0,17087.0,17088.0,101,0.3697916666666643,0.13214111328125,-1.333333333333334,-0.5,0.33333333333333326,0.5,-0.3697916666666643,-0.13214111328125,-1.333333333333334,0,0,0,0,1,0,0,1,0,1,0,0,1,0,178
179,0.0,241,244,5,4,3,1,3,0,1,2,0.76523,0,0,17090.0,17091.0,17092.0,17095.0,17096.0,101,1.4635416666666679,1.50146484375,-0.33333333333333215,0.5,1.3333333333333333,1.6111111111111112,-1.4635416666666679,-1.50146484375,-0.33333333333333215,0,0,0,0,0,1,0,1,0,0,1,0,1,0,179
180,0.0,244,247,4,2,3,2,0,1,1,3,0.49282,0,0,17099.0,17100.0,17100.0,17104.0,17105.0,101,0.2279459635416643,0.20508575439453125,-0.10416666666666785,0.5,-0.16666666666666674,0.25,-0.2279459635416643,-0.20508575439453125,-0.10416666666666785,0,0,0,0,0,1,0,1,0,0,1,0,1,0,180
181,0.0,247,250,2,0,3,2,1,1,1,3,1.6861,0,0,17109.0,17109.0,17111.0,17113.0,17114.0,101,-0.4404296875,-0.371856689453125,-2.0,0.5,-0.16666666666666674,0.25,-0.4404296875,-0.371856689453125,-2.0,0,0,0,0,0,1,0,1,0,0,1,0,1,0,181
182,1.0,250,250,0,1,2,2,2,1,1,3,0.62805,0,0,17118.0,17118.0,17119.0,17123.0,17124.0,101,-1.666666666666666,-1.171630859375,-1.6666666666666667,-0.5,-0.6666666666666667,-0.25,-1.666666666666666,-1.171630859375,-1.6666666666666667,0,0,1,0,0,0,0,0,0,1,0,0,1,0,182
183,1.0,250,250,1,2,1,2,3,1,1,3,0.60259,0,0,17126.0,17127.0,17127.0,17129.0,17130.0,101,-3.333333333333333,-2.252685546875,-3.3333333333333335,-1.5,-1.1666666666666667,-0.75,-3.333333333333333,-2.252685546875,-3.3333333333333335,0,0,1,0,0,0,0,0,1,0,0,0,0,1,183
184,0.0,250,253,2,0,3,2,0,1,0,1,2.3494,0,0,17133.0,17133.0,17136.0,17140.0,17141.0,101,-0.8604736328125,-0.517425537109375,-2.0,0.5,-0.16666666666666674,-0.16666666666666674,-0.8604736328125,-0.517425537109375,-2.0,0,0,0,0,0,1,0,1,0,0,1,0,1,0,184
185,1.0,253,253,0,1,1,2,1,1,0,1,0.7231,0,0,17143.0,17144.0,17144.0,17146.0,17147.0,101,-1.4244791666666679,-1.1396484375,-1.6666666666666665,-1.5,-1.1666666666666667,-1.25,-1.4244791666666679,-1.1396484375,-1.6666666666666665,0,0,1,0,0,0,0,0,1,0,0,0,0,1,185
186,1.0,253,253,1,2,3,2,2,1,0,1,1.0459,0,0,17150.0,17150.0,17151.0,17154.0,17155.0,101,-3.140625,-2.5302734375,-3.333333333333333,0.5,-0.16666666666666674,-0.375,-3.140625,-2.5302734375,-3.333333333333333,0,0,1,0,0,0,0,0,0,0,1,0,1,0,186
187,1.0,253,253,2,3,1,2,3,1,0,1,0.7754,0,0,17158.0,17159.0,17160.0,17163.0,17164.0,101,-3.955729166666668,-3.103515625,-4.0,-1.5,-1.1666666666666667,-1.5833333333333335,-3.955729166666668,-3.103515625,-4.0,0,0,0,1,0,0,0,1,1,0,0,0,0,1,187
188,1.0,253,253,3,4,2,1,0,0,0,0,3.4047,0,0,17168.0,17168.0,17172.0,17176.0,17177.0,101,-0.7289225260416643,-0.3501129150390625,-1.0104166666666679,-0.5,0.33333333333333326,-0.5,-0.7289225260416643,-0.3501129150390625,-1.0104166666666679,0,0,0,0,1,0,0,1,0,1,0,0,1,0,188
189,0.0,253,257,4,3,4,1,1,0,0,0,0.5848300000000001,0,0,17180.0,17181.0,17181.0,17183.0,17184.0,101,1.5462239583333357,1.934356689453125,1.1666666666666679,1.5,2.333333333333333,1.5,-1.5462239583333357,-1.934356689453125,-1.1666666666666679,0,0,0,0,0,0,1,1,0,0,0,1,0,1,189
190,0.0,257,261,3,2,4,1,2,0,0,0,0.78366,0,0,17188.0,17189.0,17190.0,17194.0,17195.0,101,1.1614583333333321,1.7384033203125,0.6666666666666679,1.5,2.333333333333333,1.5,-1.1614583333333321,-1.7384033203125,-0.6666666666666679,0,0,0,0,0,0,1,1,0,0,0,1,0,1,190
191,0.0,261,264,2,1,3,1,3,0,0,0,0.8273,0,0,17199.0,17199.0,17200.0,17204.0,17205.0,101,-0.140625,0.4697265625,-0.33333333333333304,0.5,1.3333333333333333,0.5,-0.140625,-0.4697265625,-0.33333333333333304,0,0,0,0,0,1,0,1,0,0,1,0,1,0,191
192,1.0,264,264,1,2,2,1,0,0,0,0,1.2404,0,0,17210.0,17211.0,17212.0,17215.0,17216.0,101,-1.2561035156250036,-1.067291259765625,-1.5312500000000009,-0.5,0.33333333333333326,-0.5,-1.2561035156250036,-1.067291259765625,-1.5312500000000009,0,0,0,0,1,0,0,1,0,1,0,0,1,0,192
193,0.0,264,267,2,1,3,1,1,0,0,0,0.72015,0,0,17220.0,17220.0,17221.0,17224.0,17225.0,101,-0.008138020833335702,0.36541748046875,-0.375,0.5,1.3333333333333333,0.5,-0.008138020833335702,-0.36541748046875,-0.375,0,0,0,0,0,1,0,1,0,0,1,0,1,0,193
194,1.0,267,267,1,2,1,1,2,0,0,0,0.76658,0,0,17230.0,17230.0,17231.0,17234.0,17235.0,101,-2.35546875,-2.01513671875,-2.5,-1.5,-0.6666666666666667,-1.5,-2.35546875,-2.01513671875,-2.5,0,0,0,1,0,0,0,1,1,0,0,0,0,1,194
195,0.0,267,270,2,1,3,1,3,0,0,0,0.78825,0,0,17237.0,17238.0,17239.0,17241.0,17242.0,101,-0.140625,0.4697265625,-0.33333333333333304,0.5,1.3333333333333333,0.5,-0.140625,-0.4697265625,-0.33333333333333304,0,0,0,0,0,1,0,1,0,0,1,0,1,0,195
196,1.0,270,270,1,2,2,1,0,0,0,0,0.6571100000000001,0,0,17246.0,17247.0,17247.0,17250.0,17251.0,101,-1.2561035156250036,-1.067291259765625,-1.5312500000000009,-0.5,0.33333333333333326,-0.5,-1.2561035156250036,-1.067291259765625,-1.5312500000000009,0,0,0,0,1,0,0,1,0,1,0,0,1,0,196
197,0.0,270,273,2,1,3,1,1,0,0,0,0.7088300000000001,0,0,17254.0,17255.0,17255.0,17258.0,17259.0,101,-0.008138020833335702,0.36541748046875,-0.375,0.5,1.3333333333333333,0.5,-0.008138020833335702,-0.36541748046875,-0.375,0,0,0,0,0,1,0,1,0,0,1,0,1,0,197
198,0.0,273,277,1,0,4,1,2,0,0,0,1.4723,0,0,17263.0,17264.0,17265.0,17270.0,17271.0,101,0.64453125,0.98486328125,0.5,1.5,2.333333333333333,1.5,-0.64453125,-0.98486328125,-0.5,0,0,0,0,0,0,1,1,0,0,0,1,0,1,198
199,1.0,277,277,0,1,4,1,3,0,0,0,0.8082699999999999,0,0,17275.0,17275.0,17276.0,17280.0,17281.0,101,-1.8151041666666679,-1.5732421875,-1.6666666666666667,1.5,2.333333333333333,1.5,-1.8151041666666679,-1.5732421875,-1.6666666666666667,0,1,0,0,0,0,0,0,0,0,0,1,0,1,199
200,0.0,277,281,1,0,4,1,0,0,1,2,1.4768,0,0,17284.0,17284.0,17286.0,17289.0,17290.0,101,0.9632161458333321,1.010986328125,0.46875,1.5,2.333333333333333,2.333333333333333,-0.9632161458333321,-1.010986328125,-0.46875,0,0,0,0,0,0,1,1,0,0,0,1,0,1,200
201,1.0,281,281,0,1,2,1,1,0,1,2,0.80233,0,0,17293.0,17294.0,17294.0,17297.0,17298.0,101,-1.322265625,-1.398681640625,-1.791666666666667,-0.5,0.33333333333333326,0.40909090909090895,-1.322265625,-1.398681640625,-1.791666666666667,0,1,0,0,0,0,0,0,0,1,0,0,1,0,201
202,0.0,281,284,1,0,3,1,2,0,1,2,1.1453,0,0,17301.0,17301.0,17302.0,17307.0,17308.0,101,0.18880208333333215,0.112060546875,-0.5,0.5,1.3333333333333333,1.5,-0.18880208333333215,-0.112060546875,-0.5,0,0,0,0,0,1,0,1,0,0,1,0,1,0,202
203,1.0,284,284,0,1,4,1,3,0,1,2,0.78779,0,0,17312.0,17312.0,17313.0,17316.0,17317.0,101,-1.666666666666667,-1.0810546875,-1.6666666666666667,1.5,2.333333333333333,2.611111111111111,-1.666666666666667,-1.0810546875,-1.6666666666666667,0,1,0,0,0,0,0,0,0,0,0,1,0,1,203
204,1.0,284,284,1,2,1,2,0,1,0,1,0.80784,0,0,17322.0,17322.0,17323.0,17325.0,17326.0,101,-2.606770833333334,-2.4914169311523438,-3.333333333333334,-1.5,-1.1666666666666667,-1.1666666666666667,-2.606770833333334,-2.4914169311523438,-3.333333333333334,0,0,1,0,0,0,0,0,1,0,0,0,0,1,204
205,0.0,284,287,2,0,3,2,1,1,0,1,0.8633299999999999,0,0,17329.0,17330.0,17331.0,17336.0,17337.0,101,-1.0312500000000018,-0.508087158203125,-2.0,0.5,-0.16666666666666674,-0.25,-1.0312500000000018,-0.508087158203125,-2.0,0,0,0,0,0,1,0,1,0,0,1,0,1,0,205
206,1.0,287,287,0,1,3,2,2,1,0,1,0.66038,0,0,17341.0,17341.0,17342.0,17347.0,17348.0,101,-1.7161458333333321,-1.390625,-1.6666666666666667,0.5,-0.16666666666666674,-0.375,-1.7161458333333321,-1.390625,-1.6666666666666667,0,0,1,0,0,0,0,0,0,0,1,0,1,0,206
207,1.0,287,287,1,2,3,2,3,1,0,1,1.4452,0,0,17352.0,17352.0,17354.0,17357.0,17358.0,101,-3.53125,-2.9638671875,-3.3333333333333335,0.5,-0.16666666666666674,-0.5833333333333335,-3.53125,-2.9638671875,-3.3333333333333335,0,0,1,0,0,0,0,0,0,0,1,0,1,0,207
208,1.0,287,287,2,3,1,1,0,0,0,0,2.1496,0,0,17360.0,17360.0,17363.0,17366.0,17367.0,101,-1.98583984375,-1.6644287109375,-2.375,-1.5,-0.6666666666666667,-1.5,-1.98583984375,-1.6644287109375,-2.375,0,0,0,1,0,0,0,1,1,0,0,0,0,1,208
209,1.0,287,287,3,4,2,1,1,0,0,0,2.1966,0,0,17371.0,17371.0,17374.0,17377.0,17378.0,101,-0.802734375,-0.307891845703125,-1.333333333333334,-0.5,0.33333333333333326,-0.5,-0.802734375,-0.307891845703125,-1.333333333333334,0,0,0,0,1,0,0,1,0,1,0,0,1,0,209
210,1.0,287,287,4,5,2,1,2,0,0,0,2.2296,0,0,17381.0,17382.0,17384.0,17386.0,17387.0,101,-0.546875,-0.03192138671875,-1.333333333333334,-0.5,0.33333333333333326,-0.5,-0.546875,-0.03192138671875,-1.333333333333334,0,0,0,0,1,0,0,1,0,1,0,0,1,0,210
211,0.0,287,290,5,4,3,1,3,0,0,0,0.51763,0,0,17391.0,17392.0,17392.0,17395.0,17396.0,101,0.875,1.280029296875,-0.33333333333333215,0.5,1.3333333333333333,0.5,-0.875,-1.280029296875,-0.33333333333333215,0,0,0,0,0,1,0,1,0,0,1,0,1,0,211
212,0.0,290,293,4,3,3,1,0,0,1,2,0.7772600000000001,0,0,17398.0,17398.0,17399.0,17402.0,17403.0,101,1.040283203125,1.0727729797363281,0.24999999999999822,0.5,1.3333333333333333,1.3333333333333333,-1.040283203125,-1.0727729797363281,-0.24999999999999822,0,0,0,0,0,1,0,1,0,0,1,0,1,0,212
213,0.0,293,297,3,2,4,1,1,0,1,2,0.57065,0,0,17406.0,17407.0,17407.0,17409.0,17410.0,101,1.8430989583333321,1.9709930419921875,0.6666666666666661,1.5,2.333333333333333,2.409090909090909,-1.8430989583333321,-1.9709930419921875,-0.6666666666666661,0,0,0,0,0,0,1,1,0,0,0,1,0,1,213
214,0.0,297,300,2,1,3,1,2,0,1,2,0.44976000000000005,0,0,17414.0,17414.0,17415.0,17419.0,17420.0,101,0.5013020833333339,0.87591552734375,-0.3333333333333339,0.5,1.3333333333333333,1.5,-0.5013020833333339,-0.87591552734375,-0.3333333333333339,0,0,0,0,0,1,0,1,0,0,1,0,1,0,214
215,0.0,300,304,1,0,4,1,3,0,1,2,1.2104,0,0,17424.0,17424.0,17425.0,17427.0,17428.0,101,0.6666666666666679,1.747314453125,0.6666666666666665,1.5,2.333333333333333,2.611111111111111,-0.6666666666666679,-1.747314453125,-0.6666666666666665,0,0,0,0,0,0,1,1,0,0,0,1,0,1,215
216,1.0,304,304,0,1,4,2,0,1,1,3,0.77965,0,0,17432.0,17433.0,17434.0,17436.0,17437.0,101,-1.4469401041666679,-1.092315673828125,-1.666666666666667,1.5,0.33333333333333326,0.75,-1.4469401041666679,-1.092315673828125,-1.666666666666667,0,0,1,0,0,0,0,0,0,0,0,1,0,1,216
217,1.0,304,304,1,2,3,2,1,1,1,3,0.7417100000000001,0,0,17440.0,17440.0,17441.0,17443.0,17444.0,101,-1.9554036458333357,-2.357330322265625,-3.3333333333333335,0.5,-0.16666666666666674,0.25,-1.9554036458333357,-2.357330322265625,-3.3333333333333335,0,0,1,0,0,0,0,0,0,0,1,0,1,0,217
218,1.0,304,304,2,3,1,2,2,1,1,3,0.7837,0,0,17448.0,17449.0,17449.0,17451.0,17452.0,101,-2.4960937500000018,-2.3719482421875,-4.0,-1.5,-1.1666666666666667,-0.75,-2.4960937500000018,-2.3719482421875,-4.0,0,0,0,1,0,0,0,1,1,0,0,0,0,1,218
219,1.0,304,304,3,4,2,2,3,1,1,3,0.71641,0,0,17456.0,17456.0,17457.0,17460.0,17461.0,101,-1.3281250000000018,-1.16259765625,-3.0,-0.5,-0.6666666666666667,-0.25,-1.3281250000000018,-1.16259765625,-3.0,0,0,0,0,1,0,0,1,0,1,0,0,1,0,219
220,0.0,304,308,4,2,4,2,0,1,1,3,0.7642,0,0,17463.0,17463.0,17464.0,17466.0,17467.0,101,1.2279459635416643,1.2050857543945312,0.8958333333333321,1.5,0.33333333333333326,0.75,-1.2279459635416643,-1.2050857543945312,-0.8958333333333321,0,0,0,0,0,0,1,1,0,0,0,1,0,1,220
221,1.0,308,308,2,3,3,2,1,1,1,3,2.9977,0,0,17470.0,17470.0,17473.0,17478.0,17479.0,101,-0.4404296875,-0.371856689453125,-2.0,0.5,-0.16666666666666674,0.25,-0.4404296875,-0.371856689453125,-2.0,0,0,0,0,0,1,0,1,0,0,1,0,1,0,221
222,1.0,308,308,3,4,1,2,2,1,1,3,0.9429200000000001,0,0,17483.0,17484.0,17485.0,17488.0,17489.0,101,-2.25390625,-2.1624755859375,-4.0,-1.5,-1.1666666666666667,-0.75,-2.25390625,-2.1624755859375,-4.0,0,0,0,1,0,0,0,1,1,0,0,0,0,1,222
223,1.0,308,308,4,5,1,2,3,1,1,3,0.9613799999999999,0,0,17492.0,17492.0,17493.0,17495.0,17496.0,101,-2.005208333333334,-1.824951171875,-4.0,-1.5,-1.1666666666666667,-0.75,-2.005208333333334,-1.824951171875,-4.0,0,0,0,1,0,0,0,1,1,0,0,0,0,1,223
224,1.0,308,308,5,6,1,2,0,1,0,1,0.78987,0,0,17499.0,17499.0,17500.0,17505.0,17506.0,101,-1.5735677083333357,-1.4598503112792969,-1.5104166666666679,-1.5,-1.1666666666666667,-1.1666666666666667,-1.5735677083333357,-1.4598503112792969,-1.5104166666666679,0,0,0,1,0,0,0,1,1,0,0,0,0,1,224
225,0.0,308,310,6,4,2,2,1,1,0,1,4.114,0,0,17509.0,17509.0,17513.0,17518.0,17519.0,101,0.5196940104166679,0.5171661376953125,0.9583333333333321,-0.5,-0.6666666666666667,-0.75,-0.5196940104166679,-0.5171661376953125,-0.9583333333333321,1,0,0,0,0,0,0,0,0,1,0,0,1,0,225
226,0.0,310,314,4,2,4,2,2,1,0,1,0.59534,0,0,17523.0,17524.0,17524.0,17527.0,17528.0,101,0.248046875,0.85791015625,-1.0,1.5,0.33333333333333326,0.125,-0.248046875,-0.85791015625,-1.0,0,0,0,0,0,0,1,1,0,0,0,1,0,1,226
227,0.0,314,318,2,0,4,2,3,1,0,1,2.3463,0,0,17531.0,17531.0,17533.0,17535.0,17536.0,101,-0.9557291666666679,-0.103515625,-1.0,1.5,0.33333333333333326,-0.08333333333333348,-0.9557291666666679,-0.103515625,-1.0,0,0,0,0,0,0,1,1,0,0,0,1,0,1,227
228,1.0,318,318,0,1,3,1,0,0,1,2,0.97411,0,0,17540.0,17541.0,17542.0,17544.0,17545.0,101,-1.9274088541666679,-1.7573394775390625,-1.833333333333333,0.5,1.3333333333333333,1.3333333333333333,-1.9274088541666679,-1.7573394775390625,-1.833333333333333,0,1,0,0,0,0,0,0,0,0,1,0,1,0,228
229,1.0,318,318,1,2,2,1,1,0,1,2,0.79219,0,0,17547.0,17548.0,17549.0,17551.0,17552.0,101,-0.9993489583333321,-0.812042236328125,-1.5,-0.5,0.33333333333333326,0.40909090909090895,-0.9993489583333321,-0.812042236328125,-1.5,0,0,0,0,1,0,0,1,0,1,0,0,1,0,229
230,1.0,318,318,2,3,1,1,2,0,1,2,1.0986,0,0,17557.0,17558.0,17559.0,17562.0,17563.0,101,-1.498697916666666,-1.12408447265625,-2.333333333333334,-1.5,-0.6666666666666667,-0.5,-1.498697916666666,-1.12408447265625,-2.333333333333334,0,0,0,1,0,0,0,1,1,0,0,0,0,1,230
231,1.0,318,318,3,4,2,1,3,0,1,2,1.8604,0,0,17566.0,17566.0,17568.0,17570.0,17571.0,101,0.3385416666666643,0.009033203125,-1.333333333333333,-0.5,0.33333333333333326,0.6111111111111112,-0.3385416666666643,-0.009033203125,-1.333333333333333,0,0,0,0,1,0,0,1,0,1,0,0,1,0,231
232,0.0,318,322,4,2,4,2,0,1,1,3,0.59185,0,0,17576.0,17576.0,17577.0,17580.0,17581.0,101,1.2279459635416643,1.2050857543945312,0.8958333333333321,1.5,0.33333333333333326,0.75,-1.2279459635416643,-1.2050857543945312,-0.8958333333333321,0,0,0,0,0,0,1,1,0,0,0,1,0,1,232
233,1.0,322,322,2,3,2,2,1,1,1,3,0.87482,0,0,17584.0,17584.0,17585.0,17589.0,17590.0,101,-1.4404296875,-1.371856689453125,-3.0,-0.5,-0.6666666666666667,-0.25,-1.4404296875,-1.371856689453125,-3.0,0,0,0,0,1,0,0,1,0,1,0,0,1,0,233
234,0.0,322,326,3,1,4,2,2,1,1,3,0.8507100000000001,0,0,17593.0,17594.0,17594.0,17596.0,17597.0,101,0.74609375,0.8375244140625,-1.0,1.5,0.33333333333333326,0.75,-0.74609375,-0.8375244140625,-1.0,0,0,0,0,0,0,1,1,0,0,0,1,0,1,234
235,1.0,326,326,1,2,3,2,3,1,1,3,1.8987,0,0,17600.0,17600.0,17602.0,17604.0,17605.0,101,-3.333333333333333,-2.252685546875,-3.3333333333333335,0.5,-0.16666666666666674,0.25,-3.333333333333333,-2.252685546875,-3.3333333333333335,0,0,1,0,0,0,0,0,0,0,1,0,1,0,235
236,0.0,326,329,2,0,3,2,0,1,0,1,1.2281,0,0,17608.0,17609.0,17610.0,17612.0,17613.0,101,-0.8604736328125,-0.517425537109375,-2.0,0.5,-0.16666666666666674,-0.16666666666666674,-0.8604736328125,-0.517425537109375,-2.0,0,0,0,0,0,1,0,1,0,0,1,0,1,0,236
237,1.0,329,329,0,1,3,2,1,1,0,1,0.73378,0,0,17617.0,17618.0,17619.0,17621.0,17622.0,101,-1.4244791666666679,-1.1396484375,-1.6666666666666665,0.5,-0.16666666666666674,-0.25,-1.4244791666666679,-1.1396484375,-1.6666666666666665,0,0,1,0,0,0,0,0,0,0,1,0,1,0,237
238,1.0,329,329,1,2,1,2,2,1,0,1,0.8066800000000001,0,0,17626.0,17626.0,17627.0,17630.0,17631.0,101,-3.140625,-2.5302734375,-3.333333333333333,-1.5,-1.1666666666666667,-1.375,-3.140625,-2.5302734375,-3.333333333333333,0,0,1,0,0,0,0,0,1,0,0,0,0,1,238
239,0.0,329,333,2,0,4,2,3,1,0,1,2.0337,0,0,17634.0,17634.0,17637.0,17640.0,17641.0,101,-0.9557291666666679,-0.103515625,-1.0,1.5,0.33333333333333326,-0.08333333333333348,-0.9557291666666679,-0.103515625,-1.0,0,0,0,0,0,0,1,1,0,0,0,1,0,1,239
0,1.0,0,0,3,4,2,1,0,0,1,2,2.7119999999999997,0,0,19845.0,19846.0,19848.0,19852.0,19853.0,102,-0.376953125,-0.21881103515625,-1.0104166666666679,-0.5,0.33333333333333326,0.33333333333333326,-0.376953125,-0.21881103515625,-1.0104166666666679,0,0,0,0,1,0,0,1,0,1,0,0,1,0,0
1,0.0,0,3,4,3,3,1,1,0,1,2,0.91375,0,0,19855.0,19856.0,19857.0,19861.0,19862.0,102,0.8196614583333321,1.080810546875,0.16666666666666785,0.5,1.3333333333333333,1.409090909090909,-0.8196614583333321,-1.080810546875,-0.16666666666666785,0,0,0,0,0,1,0,1,0,0,1,0,1,0,1
2,0.0,3,7,3,2,4,1,2,0,1,2,1.6691,0,0,19865.0,19865.0,19867.0,19870.0,19871.0,102,1.6640625000000018,1.931884765625,0.6666666666666679,1.5,2.333333333333333,2.5,-1.6640625000000018,-1.931884765625,-0.6666666666666679,0,0,0,0,0,0,1,1,0,0,0,1,0,1,2
3,0.0,7,11,2,1,4,1,3,0,1,2,0.78861,0,0,19874.0,19874.0,19875.0,19880.0,19881.0,102,1.877604166666666,1.72412109375,0.666666666666667,1.5,2.333333333333333,2.611111111111111,-1.877604166666666,-1.72412109375,-0.666666666666667,0,0,0,0,0,0,1,1,0,0,0,1,0,1,3
4,1.0,11,11,1,2,1,2,0,1,1,3,0.46818999999999994,0,0,19884.0,19885.0,19885.0,19887.0,19888.0,102,-3.071858723958332,-2.2638778686523438,-3.333333333333334,-1.5,-1.1666666666666667,-0.75,-3.071858723958332,-2.2638778686523438,-3.333333333333334,0,0,1,0,0,0,0,0,1,0,0,0,0,1,4
5,1.0,11,11,2,3,3,2,1,1,1,3,1.1488,0,0,19891.0,19892.0,19893.0,19897.0,19898.0,102,-0.4404296875,-0.371856689453125,-2.0,0.5,-0.16666666666666674,0.25,-0.4404296875,-0.371856689453125,-2.0,0,0,0,0,0,1,0,1,0,0,1,0,1,0,5
6,0.0,11,15,3,1,4,2,2,1,1,3,0.61731,0,0,19900.0,19901.0,19901.0,19903.0,19904.0,102,0.74609375,0.8375244140625,-1.0,1.5,0.33333333333333326,0.75,-0.74609375,-0.8375244140625,-1.0,0,0,0,0,0,0,1,1,0,0,0,1,0,1,6
7,1.0,15,15,1,2,3,2,3,1,1,3,0.38306999999999997,0,0,19907.0,19908.0,19908.0,19909.0,19910.0,102,-3.333333333333333,-2.252685546875,-3.3333333333333335,0.5,-0.16666666666666674,0.25,-3.333333333333333,-2.252685546875,-3.3333333333333335,0,0,1,0,0,0,0,0,0,0,1,0,1,0,7
8,1.0,15,15,2,3,1,2,0,1,0,1,0.45036000000000004,0,0,19915.0,19916.0,19916.0,19920.0,19921.0,102,-2.8604736328125,-2.517425537109375,-4.0,-1.5,-1.1666666666666667,-1.1666666666666667,-2.8604736328125,-2.517425537109375,-4.0,0,0,0,1,0,0,0,1,1,0,0,0,0,1,8
9,1.0,15,15,3,4,2,2,1,1,0,1,0.47303999999999996,0,0,19925.0,19925.0,19926.0,19928.0,19929.0,102,-1.81396484375,-1.3565673828125,-3.0,-0.5,-0.6666666666666667,-0.75,-1.81396484375,-1.3565673828125,-3.0,0,0,0,0,1,0,0,1,0,1,0,0,1,0,9
10,0.0,15,18,4,2,3,2,2,1,0,1,2.9767,0,0,19933.0,19933.0,19936.0,19939.0,19940.0,102,-0.751953125,-0.14208984375,-2.0,0.5,-0.16666666666666674,-0.375,-0.751953125,-0.14208984375,-2.0,0,0,0,0,0,1,0,1,0,0,1,0,1,0,10
11,1.0,18,18,2,3,2,2,3,1,0,1,0.3958,0,0,19945.0,19945.0,19946.0,19949.0,19950.0,102,-2.955729166666668,-2.103515625,-3.0,-0.5,-0.6666666666666667,-1.0833333333333335,-2.955729166666668,-2.103515625,-3.0,0,0,0,0,1,0,0,1,0,1,0,0,1,0,11
12,0.0,18,22,3,2,4,1,0,0,0,0,0.52044,0,0,19953.0,19953.0,19954.0,19958.0,19959.0,102,1.2710774739583357,1.6498870849609375,0.9895833333333321,1.5,2.333333333333333,1.5,-1.2710774739583357,-1.6498870849609375,-0.9895833333333321,0,0,0,0,0,0,1,1,0,0,0,1,0,1,12
13,1.0,22,22,2,3,2,1,1,0,0,0,0.5415,0,0,19963.0,19964.0,19964.0,19967.0,19968.0,102,-1.0081380208333357,-0.63458251953125,-1.3750000000000009,-0.5,0.33333333333333326,-0.5,-1.0081380208333357,-0.63458251953125,-1.3750000000000009,0,0,0,0,1,0,0,1,0,1,0,0,1,0,13
14,1.0,22,22,3,4,2,1,2,0,0,0,0.6610199999999999,0,0,19972.0,19972.0,19973.0,19977.0,19978.0,102,-0.8385416666666679,-0.2615966796875,-1.333333333333333,-0.5,0.33333333333333326,-0.5,-0.8385416666666679,-0.2615966796875,-1.333333333333333,0,0,0,0,1,0,0,1,0,1,0,0,1,0,14
15,0.0,22,26,4,3,4,1,3,0,0,0,0.47962,0,0,19981.0,19982.0,19982.0,19985.0,19986.0,102,1.393229166666666,2.01416015625,0.6666666666666661,1.5,2.333333333333333,1.5,-1.393229166666666,-2.01416015625,-0.6666666666666661,0,0,0,0,0,0,1,1,0,0,0,1,0,1,15
16,0.0,26,29,3,2,3,1,0,0,0,0,0.76617,0,0,19989.0,19989.0,19990.0,19994.0,19995.0,102,0.2710774739583357,0.6498870849609375,-0.010416666666667851,0.5,1.3333333333333333,0.5,-0.2710774739583357,-0.6498870849609375,-0.010416666666667851,0,0,0,0,0,1,0,1,0,0,1,0,1,0,16
17,1.0,29,29,2,3,1,1,1,0,0,0,0.41391000000000006,0,0,19999.0,20000.0,20000.0,20004.0,20006.0,102,-2.0081380208333357,-1.63458251953125,-2.375000000000001,-1.5,-0.6666666666666667,-1.5,-2.0081380208333357,-1.63458251953125,-2.375000000000001,0,0,0,1,0,0,0,1,1,0,0,0,0,1,17
18,0.0,29,32,3,2,3,1,2,0,0,0,0.74078,0,0,20008.0,20009.0,20010.0,20012.0,20013.0,102,0.16145833333333215,0.7384033203125,-0.33333333333333215,0.5,1.3333333333333333,0.5,-0.16145833333333215,-0.7384033203125,-0.33333333333333215,0,0,0,0,0,1,0,1,0,0,1,0,1,0,18
19,1.0,32,32,2,3,2,1,3,0,0,0,0.53781,0,0,20015.0,20016.0,20016.0,20020.0,20021.0,102,-1.140625,-0.5302734375,-1.333333333333333,-0.5,0.33333333333333326,-0.5,-1.140625,-0.5302734375,-1.333333333333333,0,0,0,0,1,0,0,1,0,1,0,0,1,0,19
20,0.0,32,36,3,2,4,1,0,0,1,2,0.46679,0,0,20023.0,20024.0,20024.0,20028.0,20029.0,102,1.623046875,1.78118896484375,0.9895833333333321,1.5,2.333333333333333,2.333333333333333,-1.623046875,-1.78118896484375,-0.9895833333333321,0,0,0,0,0,0,1,1,0,0,0,1,0,1,20
21,0.0,36,39,2,1,3,1,1,0,1,2,0.41881,0,0,20033.0,20034.0,20034.0,20038.0,20039.0,102,0.42643229166666785,0.52197265625,-0.375,0.5,1.3333333333333333,1.409090909090909,-0.42643229166666785,-0.52197265625,-0.375,0,0,0,0,0,1,0,1,0,0,1,0,1,0,21
22,0.0,39,42,1,0,3,1,2,0,1,2,1.2722,0,0,20041.0,20041.0,20043.0,20047.0,20048.0,102,0.18880208333333215,0.112060546875,-0.5,0.5,1.3333333333333333,1.5,-0.18880208333333215,-0.112060546875,-0.5,0,0,0,0,0,1,0,1,0,0,1,0,1,0,22
23,1.0,42,42,0,1,4,1,3,0,1,2,0.40881,0,0,20051.0,20051.0,20052.0,20054.0,20055.0,102,-1.666666666666667,-1.0810546875,-1.6666666666666667,1.5,2.333333333333333,2.611111111111111,-1.666666666666667,-1.0810546875,-1.6666666666666667,0,1,0,0,0,0,0,0,0,0,0,1,0,1,23
24,1.0,42,42,1,2,3,2,0,1,1,3,0.49315,0,0,20057.0,20058.0,20058.0,20060.0,20061.0,102,-3.071858723958332,-2.2638778686523438,-3.333333333333334,0.5,-0.16666666666666674,0.25,-3.071858723958332,-2.2638778686523438,-3.333333333333334,0,0,1,0,0,0,0,0,0,0,1,0,1,0,24
25,1.0,42,42,2,3,1,2,1,1,1,3,0.3847,0,0,20065.0,20065.0,20066.0,20067.0,20068.0,102,-2.4404296875,-2.371856689453125,-4.0,-1.5,-1.1666666666666667,-0.75,-2.4404296875,-2.371856689453125,-4.0,0,0,0,1,0,0,0,1,1,0,0,0,0,1,25
26,1.0,42,42,3,4,1,2,2,1,1,3,0.40992,0,0,20070.0,20071.0,20071.0,20076.0,20077.0,102,-2.25390625,-2.1624755859375,-4.0,-1.5,-1.1666666666666667,-0.75,-2.25390625,-2.1624755859375,-4.0,0,0,0,1,0,0,0,1,1,0,0,0,0,1,26
27,1.0,42,42,4,5,2,2,3,1,1,3,0.5052,0,0,20082.0,20082.0,20083.0,20086.0,20087.0,102,-1.005208333333334,-0.824951171875,-3.0,-0.5,-0.6666666666666667,-0.25,-1.005208333333334,-0.824951171875,-3.0,0,0,0,0,1,0,0,1,0,1,0,0,1,0,27
28,1.0,42,42,5,6,2,2,0,1,0,1,1.9758,0,0,20090.0,20091.0,20093.0,20095.0,20096.0,102,-0.5735677083333357,-0.4598503112792969,-0.5104166666666679,-0.5,-0.6666666666666667,-0.6666666666666667,-0.5735677083333357,-0.4598503112792969,-0.5104166666666679,0,0,0,0,1,0,0,1,0,1,0,0,1,0,28
29,0.0,42,43,6,4,1,2,1,1,0,1,1.4457,0,0,20099.0,20099.0,20101.0,20104.0,20105.0,102,-0.48030598958333215,-0.4828338623046875,-0.04166666666666785,-1.5,-1.1666666666666667,-1.25,-0.48030598958333215,-0.4828338623046875,-0.04166666666666785,1,0,0,0,0,0,0,0,1,0,0,0,0,1,29
30,1.0,43,43,4,5,2,2,2,1,0,1,0.56074,0,0,20108.0,20109.0,20109.0,20113.0,20114.0,102,-1.751953125,-1.14208984375,-3.0,-0.5,-0.6666666666666667,-0.875,-1.751953125,-1.14208984375,-3.0,0,0,0,0,1,0,0,1,0,1,0,0,1,0,30
31,1.0,43,43,5,6,2,2,3,1,0,1,1.4633,0,0,20117.0,20118.0,20119.0,20123.0,20124.0,102,-1.6692708333333321,-0.7841796875,-3.0,-0.5,-0.6666666666666667,-1.0833333333333335,-1.6692708333333321,-0.7841796875,-3.0,0,0,0,0,1,0,0,1,0,1,0,0,1,0,31
32,0.0,43,47,6,5,4,1,0,0,0,0,0.42281,0,0,20126.0,20126.0,20127.0,20130.0,20131.0,102,3.2524414062499964,3.2384262084960938,3.208333333333332,1.5,2.333333333333333,1.5,-3.2524414062499964,-3.2384262084960938,-3.208333333333332,1,0,0,0,0,0,0,0,0,0,0,1,0,1,32
33,0.0,47,49,5,4,2,1,1,0,0,0,1.1862,0,0,20136.0,20137.0,20138.0,20142.0,20143.0,102,-0.0234375,0.234039306640625,-0.3333333333333339,-0.5,0.33333333333333326,-0.5,-0.0234375,-0.234039306640625,-0.3333333333333339,0,0,0,0,1,0,0,1,0,1,0,0,1,0,33
34,0.0,49,53,4,3,4,1,2,0,0,0,0.42463999999999996,0,0,20146.0,20146.0,20147.0,20150.0,20151.0,102,1.453125,1.96807861328125,0.6666666666666661,1.5,2.333333333333333,1.5,-1.453125,-1.96807861328125,-0.6666666666666661,0,0,0,0,0,0,1,1,0,0,0,1,0,1,34
35,1.0,53,53,3,4,2,1,3,0,0,0,0.52117,0,0,20154.0,20154.0,20155.0,20160.0,20161.0,102,-0.96875,-0.203857421875,-1.333333333333333,-0.5,0.33333333333333326,-0.5,-0.96875,-0.203857421875,-1.333333333333333,0,0,0,0,1,0,0,1,0,1,0,0,1,0,35
36,0.0,53,57,4,3,4,1,0,0,1,2,0.45995,0,0,20163.0,20164.0,20164.0,20166.0,20167.0,102,2.040283203125,2.072772979736328,1.2499999999999982,1.5,2.333333333333333,2.333333333333333,-2.040283203125,-2.072772979736328,-1.2499999999999982,0,0,0,0,0,0,1,1,0,0,0,1,0,1,36
37,1.0,57,57,3,4,1,1,1,0,1,2,0.6924,0,0,20170.0,20170.0,20171.0,20173.0,20174.0,102,-1.1569010416666679,-1.0290069580078125,-2.333333333333334,-1.5,-0.6666666666666667,-0.590909090909091,-1.1569010416666679,-1.0290069580078125,-2.333333333333334,0,0,0,1,0,0,0,1,1,0,0,0,0,1,37
38,0.0,57,60,4,3,3,1,2,0,1,2,0.8026800000000001,0,0,20176.0,20176.0,20177.0,20178.0,20179.0,102,1.3697916666666643,1.13214111328125,-0.3333333333333339,0.5,1.3333333333333333,1.5,-1.3697916666666643,-1.13214111328125,-0.3333333333333339,0,0,0,0,0,1,0,1,0,0,1,0,1,0,38
39,1.0,60,60,3,4,1,1,3,0,1,2,0.46871,0,0,20183.0,20183.0,20184.0,20185.0,20186.0,102,-0.6614583333333357,-0.990966796875,-2.333333333333333,-1.5,-0.6666666666666667,-0.38888888888888884,-0.6614583333333357,-0.990966796875,-2.333333333333333,0,0,0,1,0,0,0,1,1,0,0,0,0,1,39
40,1.0,60,60,4,5,1,2,0,1,1,3,1.3939,0,0,20191.0,20191.0,20193.0,20195.0,20196.0,102,-1.7720540364583357,-1.7949142456054688,-2.104166666666668,-1.5,-1.1666666666666667,-0.75,-1.7720540364583357,-1.7949142456054688,-2.104166666666668,0,0,0,1,0,0,0,1,1,0,0,0,0,1,40
41,0.0,60,64,5,3,4,2,1,1,1,3,0.62284,0,0,20200.0,20201.0,20201.0,20204.0,20205.0,102,1.6761067708333321,1.596099853515625,1.291666666666666,1.5,0.33333333333333326,0.75,-1.6761067708333321,-1.596099853515625,-1.291666666666666,0,0,0,0,0,0,1,1,0,0,0,1,0,1,41
42,1.0,64,64,3,4,2,2,2,1,1,3,0.45576000000000005,0,0,20207.0,20208.0,20208.0,20211.0,20212.0,102,-1.25390625,-1.1624755859375,-3.0,-0.5,-0.6666666666666667,-0.25,-1.25390625,-1.1624755859375,-3.0,0,0,0,0,1,0,0,1,0,1,0,0,1,0,42
43,0.0,64,68,4,2,4,2,3,1,1,3,0.57227,0,0,20214.0,20215.0,20215.0,20219.0,20220.0,102,0.9947916666666661,1.175048828125,-1.0,1.5,0.33333333333333326,0.75,-0.9947916666666661,-1.175048828125,-1.0,0,0,0,0,0,0,1,1,0,0,0,1,0,1,43
44,1.0,68,68,2,3,1,2,0,1,0,1,0.44411000000000006,0,0,20225.0,20225.0,20226.0,20229.0,20230.0,102,-2.8604736328125,-2.517425537109375,-4.0,-1.5,-1.1666666666666667,-1.1666666666666667,-2.8604736328125,-2.517425537109375,-4.0,0,0,0,1,0,0,0,1,1,0,0,0,0,1,44
45,0.0,68,72,3,1,4,2,1,1,0,1,0.5669,0,0,20235.0,20235.0,20236.0,20240.0,20241.0,102,0.18603515625,0.6434326171875,-1.0,1.5,0.33333333333333326,0.25,-0.18603515625,-0.6434326171875,-1.0,0,0,0,0,0,0,1,1,0,0,0,1,0,1,45
46,1.0,72,72,1,2,1,2,2,1,0,1,0.46305,0,0,20245.0,20245.0,20246.0,20250.0,20251.0,102,-3.140625,-2.5302734375,-3.333333333333333,-1.5,-1.1666666666666667,-1.375,-3.140625,-2.5302734375,-3.333333333333333,0,0,1,0,0,0,0,0,1,0,0,0,0,1,46
47,1.0,72,72,2,3,1,2,3,1,0,1,0.41106000000000004,0,0,20254.0,20254.0,20255.0,20260.0,20261.0,102,-3.955729166666668,-3.103515625,-4.0,-1.5,-1.1666666666666667,-1.5833333333333335,-3.955729166666668,-3.103515625,-4.0,0,0,0,1,0,0,0,1,1,0,0,0,0,1,47
48,1.0,72,72,3,4,1,1,0,0,0,0,0.51723,0,0,20265.0,20266.0,20266.0,20268.0,20269.0,102,-1.7289225260416643,-1.3501129150390625,-2.010416666666668,-1.5,-0.6666666666666667,-1.5,-1.7289225260416643,-1.3501129150390625,-2.010416666666668,0,0,0,1,0,0,0,1,1,0,0,0,0,1,48
49,1.0,72,72,4,5,2,1,1,0,0,0,0.7806,0,0,20272.0,20272.0,20273.0,20275.0,20276.0,102,-0.4537760416666643,-0.065643310546875,-0.8333333333333321,-0.5,0.33333333333333326,-0.5,-0.4537760416666643,-0.065643310546875,-0.8333333333333321,0,0,0,0,1,0,0,1,0,1,0,0,1,0,49
50,1.0,72,72,5,6,1,1,2,0,0,0,0.54914,0,0,20279.0,20279.0,20280.0,20284.0,20285.0,102,-1.0690104166666643,-0.7393798828125,-1.5000000000000018,-1.5,-0.6666666666666667,-1.5,-1.0690104166666643,-0.7393798828125,-1.5000000000000018,0,0,0,1,0,0,0,1,1,0,0,0,0,1,50
51,0.0,72,73,6,5,1,1,3,0,0,0,1.0835,0,0,20289.0,20289.0,20291.0,20292.0,20293.0,102,-0.062499999999998224,0.20166015625,-0.6666666666666661,-1.5,-0.6666666666666667,-1.5,-0.062499999999998224,-0.20166015625,-0.6666666666666661,1,0,0,0,0,0,0,0,1,0,0,0,0,1,51
52,0.0,73,77,5,4,4,1,0,0,1,2,0.39976999999999996,0,0,20295.0,20295.0,20296.0,20299.0,20300.0,102,2.159830729166668,2.31060791015625,1.7916666666666679,1.5,2.333333333333333,2.333333333333333,-2.159830729166668,-2.31060791015625,-1.7916666666666679,0,0,0,0,0,0,1,1,0,0,0,1,0,1,52
53,0.0,77,81,4,3,4,1,1,0,1,2,0.42078000000000004,0,0,20302.0,20303.0,20303.0,20306.0,20307.0,102,1.8196614583333321,2.080810546875,1.1666666666666679,1.5,2.333333333333333,2.409090909090909,-1.8196614583333321,-2.080810546875,-1.1666666666666679,0,0,0,0,0,0,1,1,0,0,0,1,0,1,53
54,1.0,81,81,3,4,1,1,2,0,1,2,0.5670000000000001,0,0,20311.0,20312.0,20312.0,20317.0,20318.0,102,-1.3359374999999982,-1.068115234375,-2.333333333333333,-1.5,-0.6666666666666667,-0.5,-1.3359374999999982,-1.068115234375,-2.333333333333333,0,0,0,1,0,0,0,1,1,0,0,0,0,1,54
55,0.0,81,84,4,3,3,1,3,0,1,2,0.58162,0,0,20322.0,20322.0,20323.0,20326.0,20327.0,102,0.4505208333333339,1.279296875,-0.3333333333333339,0.5,1.3333333333333333,1.6111111111111112,-0.4505208333333339,-1.279296875,-0.3333333333333339,0,0,0,0,0,1,0,1,0,0,1,0,1,0,55
56,1.0,84,84,3,4,2,2,0,1,1,3,0.73501,0,0,20330.0,20331.0,20331.0,20334.0,20335.0,102,-1.178548177083334,-1.1503143310546875,-1.71875,-0.5,-0.6666666666666667,-0.25,-1.178548177083334,-1.1503143310546875,-1.71875,0,0,0,0,1,0,0,1,0,1,0,0,1,0,56
57,1.0,84,84,4,5,1,2,1,1,1,3,0.51275,0,0,20339.0,20340.0,20340.0,20344.0,20345.0,102,-1.857096354166666,-1.800628662109375,-2.625000000000001,-1.5,-1.1666666666666667,-0.75,-1.857096354166666,-1.800628662109375,-2.625000000000001,0,0,0,1,0,0,0,1,1,0,0,0,0,1,57
58,0.0,84,87,5,3,3,2,2,1,1,3,0.72715,0,0,20349.0,20350.0,20350.0,20354.0,20355.0,102,0.5338541666666661,0.584716796875,-0.5,0.5,-0.16666666666666674,0.25,-0.5338541666666661,-0.584716796875,-0.5,0,0,0,0,0,1,0,1,0,0,1,0,1,0,58
59,1.0,87,87,3,4,1,2,3,1,1,3,0.4606,0,0,20360.0,20360.0,20361.0,20364.0,20365.0,102,-2.3281250000000018,-2.16259765625,-4.0,-1.5,-1.1666666666666667,-0.75,-2.3281250000000018,-2.16259765625,-4.0,0,0,0,1,0,0,0,1,1,0,0,0,0,1,59
60,0.0,87,91,4,2,4,2,0,1,0,1,0.71536,0,0,20368.0,20368.0,20369.0,20371.0,20372.0,102,0.90625,1.1374969482421875,0.8958333333333321,1.5,0.33333333333333326,0.33333333333333326,-0.90625,-1.1374969482421875,-0.8958333333333321,0,0,0,0,0,0,1,1,0,0,0,1,0,1,60
61,1.0,91,91,2,3,2,2,1,1,0,1,0.56804,0,0,20377.0,20377.0,20378.0,20379.0,20380.0,102,-2.0312500000000018,-1.508087158203125,-3.0,-0.5,-0.6666666666666667,-0.75,-2.0312500000000018,-1.508087158203125,-3.0,0,0,0,0,1,0,0,1,0,1,0,0,1,0,61
62,1.0,91,91,3,4,3,2,2,1,0,1,1.6506,0,0,20384.0,20385.0,20386.0,20390.0,20391.0,102,-1.0312500000000018,-0.3441162109375,-2.0,0.5,-0.16666666666666674,-0.375,-1.0312500000000018,-0.3441162109375,-2.0,0,0,0,0,0,1,0,1,0,0,1,0,1,0,62
63,1.0,91,91,4,5,2,2,3,1,0,1,0.49287,0,0,20394.0,20394.0,20395.0,20397.0,20398.0,102,-2.0312500000000018,-1.12548828125,-3.0,-0.5,-0.6666666666666667,-1.0833333333333335,-2.0312500000000018,-1.12548828125,-3.0,0,0,0,0,1,0,0,1,0,1,0,0,1,0,63
64,0.0,91,95,5,4,4,1,0,0,0,0,0.42523,0,0,20400.0,20401.0,20401.0,20402.0,20403.0,102,2.018391927083332,2.2171783447265625,1.7916666666666679,1.5,2.333333333333333,1.5,-2.018391927083332,-2.2171783447265625,-1.7916666666666679,0,0,0,0,0,0,1,1,0,0,0,1,0,1,64
65,1.0,95,95,4,5,1,1,1,0,0,0,0.53168,0,0,20408.0,20408.0,20409.0,20413.0,20414.0,102,-1.4537760416666643,-1.065643310546875,-1.8333333333333321,-1.5,-0.6666666666666667,-1.5,-1.4537760416666643,-1.065643310546875,-1.8333333333333321,0,0,0,1,0,0,0,1,1,0,0,0,0,1,65
66,0.0,95,98,5,4,3,1,2,0,0,0,0.46142,0,0,20417.0,20417.0,20418.0,20420.0,20421.0,102,0.9309895833333357,1.2606201171875,0.4999999999999982,0.5,1.3333333333333333,0.5,-0.9309895833333357,-1.2606201171875,-0.4999999999999982,0,0,0,0,0,1,0,1,0,0,1,0,1,0,66
67,0.0,98,102,4,3,4,1,3,0,0,0,0.49914,0,0,20425.0,20425.0,20426.0,20428.0,20429.0,102,1.393229166666666,2.01416015625,0.6666666666666661,1.5,2.333333333333333,1.5,-1.393229166666666,-2.01416015625,-0.6666666666666661,0,0,0,0,0,0,1,1,0,0,0,1,0,1,67
68,1.0,102,102,3,4,1,1,0,0,1,2,0.45386000000000004,0,0,20434.0,20434.0,20435.0,20438.0,20439.0,102,-1.376953125,-1.21881103515625,-2.010416666666668,-1.5,-0.6666666666666667,-0.6666666666666667,-1.376953125,-1.21881103515625,-2.010416666666668,0,0,0,1,0,0,0,1,1,0,0,0,0,1,68
69,1.0,102,102,4,5,2,1,1,0,1,2,1.0178,0,0,20442.0,20442.0,20443.0,20446.0,20447.0,102,-0.18033854166666785,0.080810546875,-0.8333333333333321,-0.5,0.33333333333333326,0.40909090909090895,-0.18033854166666785,-0.080810546875,-0.8333333333333321,0,0,0,0,1,0,0,1,0,1,0,0,1,0,69
70,1.0,102,102,5,6,1,1,2,0,1,2,0.78317,0,0,20449.0,20450.0,20450.0,20454.0,20455.0,102,-1.024739583333334,-0.54052734375,-1.5000000000000018,-1.5,-0.6666666666666667,-0.5,-1.024739583333334,-0.54052734375,-1.5000000000000018,0,0,0,1,0,0,0,1,1,0,0,0,0,1,70
71,0.0,102,104,6,5,2,1,3,0,1,2,0.89476,0,0,20459.0,20459.0,20460.0,20463.0,20464.0,102,1.807291666666666,1.33544921875,0.3333333333333339,-0.5,0.33333333333333326,0.6111111111111112,-1.807291666666666,-1.33544921875,-0.3333333333333339,1,0,0,0,0,0,0,0,0,1,0,0,1,0,71
72,0.0,104,107,5,3,3,2,0,1,1,3,0.49883,0,0,20468.0,20468.0,20469.0,20472.0,20473.0,102,0.43603515625,0.622314453125,0.48958333333333215,0.5,-0.16666666666666674,0.25,-0.43603515625,-0.622314453125,-0.48958333333333215,0,0,0,0,0,1,0,1,0,0,1,0,1,0,72
73,0.0,107,111,3,1,4,2,1,1,1,3,0.5331199999999999,0,0,20478.0,20479.0,20479.0,20483.0,20484.0,102,0.69873046875,0.85906982421875,-1.0,1.5,0.33333333333333326,0.75,-0.69873046875,-0.85906982421875,-1.0,0,0,0,0,0,0,1,1,0,0,0,1,0,1,73
74,1.0,111,111,1,2,1,2,2,1,1,3,0.36483000000000004,0,0,20488.0,20489.0,20489.0,20492.0,20493.0,102,-2.175130208333334,-2.4366455078125,-3.333333333333333,-1.5,-1.1666666666666667,-0.75,-2.175130208333334,-2.4366455078125,-3.333333333333333,0,0,1,0,0,0,0,0,1,0,0,0,0,1,74
75,1.0,111,111,2,3,2,2,3,1,1,3,0.39651,0,0,20497.0,20498.0,20498.0,20499.0,20500.0,102,-1.7890625,-1.35693359375,-3.0,-0.5,-0.6666666666666667,-0.25,-1.7890625,-1.35693359375,-3.0,0,0,0,0,1,0,0,1,0,1,0,0,1,0,75
76,1.0,111,111,3,4,2,2,0,1,1,3,0.71607,0,0,20503.0,20503.0,20504.0,20506.0,20507.0,102,-1.178548177083334,-1.1503143310546875,-1.71875,-0.5,-0.6666666666666667,-0.25,-1.178548177083334,-1.1503143310546875,-1.71875,0,0,0,0,1,0,0,1,0,1,0,0,1,0,76
77,1.0,111,111,4,5,2,2,1,1,1,3,0.40633,0,0,20509.0,20510.0,20510.0,20513.0,20514.0,102,-0.8570963541666661,-0.800628662109375,-1.625,-0.5,-0.6666666666666667,-0.25,-0.8570963541666661,-0.800628662109375,-1.625,0,0,0,0,1,0,0,1,0,1,0,0,1,0,77
78,1.0,111,111,5,6,1,2,2,1,1,3,0.60226,0,0,20516.0,20517.0,20517.0,20520.0,20521.0,102,-1.466145833333334,-1.415283203125,-2.500000000000001,-1.5,-1.1666666666666667,-0.75,-1.466145833333334,-1.415283203125,-2.500000000000001,0,0,0,1,0,0,0,1,1,0,0,0,0,1,78
79,0.0,111,113,6,4,2,2,3,1,1,3,0.87487,0,0,20525.0,20525.0,20526.0,20528.0,20529.0,102,0.46354166666666785,0.50146484375,-1.3333333333333321,-0.5,-0.6666666666666667,-0.25,-0.46354166666666785,-0.50146484375,-1.3333333333333321,1,0,0,0,0,0,0,0,0,1,0,0,1,0,79
80,1.0,113,113,4,5,2,2,0,1,0,1,2.2315,0,0,20660.0,20661.0,20663.0,20667.0,20668.0,102,-1.09375,-0.8625030517578125,-1.1041666666666679,-0.5,-0.6666666666666667,-0.6666666666666667,-1.09375,-0.8625030517578125,-1.1041666666666679,0,0,0,0,1,0,0,1,0,1,0,0,1,0,80
81,0.0,113,117,5,3,4,2,1,1,0,1,0.5092899999999999,0,0,20672.0,20673.0,20673.0,20676.0,20677.0,102,1.3125,1.5290374755859375,1.291666666666666,1.5,0.33333333333333326,0.25,-1.3125,-1.5290374755859375,-1.291666666666666,0,0,0,0,0,0,1,1,0,0,0,1,0,1,81
82,1.0,117,117,3,4,2,2,2,1,0,1,0.64168,0,0,20679.0,20680.0,20681.0,20685.0,20686.0,102,-2.0312500000000018,-1.3441162109375,-3.0,-0.5,-0.6666666666666667,-0.875,-2.0312500000000018,-1.3441162109375,-3.0,0,0,0,0,1,0,0,1,0,1,0,0,1,0,82
83,0.0,117,120,4,2,3,2,3,1,0,1,0.68865,0,0,20690.0,20691.0,20692.0,20694.0,20695.0,102,-1.0312500000000018,-0.12548828125,-2.0,0.5,-0.16666666666666674,-0.5833333333333335,-1.0312500000000018,-0.12548828125,-2.0,0,0,0,0,0,1,0,1,0,0,1,0,1,0,83
84,1.0,120,120,2,3,1,1,0,0,0,0,0.5181600000000001,0,0,20698.0,20698.0,20699.0,20703.0,20704.0,102,-1.98583984375,-1.6644287109375,-2.375,-1.5,-0.6666666666666667,-1.5,-1.98583984375,-1.6644287109375,-2.375,0,0,0,1,0,0,0,1,1,0,0,0,0,1,84
85,0.0,120,123,3,2,3,1,1,0,0,0,1.4577,0,0,20706.0,20707.0,20708.0,20711.0,20712.0,102,0.197265625,0.692108154296875,-0.3333333333333339,0.5,1.3333333333333333,0.5,-0.197265625,-0.692108154296875,-0.3333333333333339,0,0,0,0,0,1,0,1,0,0,1,0,1,0,85
86,1.0,123,123,2,3,1,1,2,0,0,0,0.37233,0,0,20716.0,20716.0,20717.0,20721.0,20722.0,102,-2.1171875,-1.5838623046875,-2.333333333333334,-1.5,-0.6666666666666667,-1.5,-2.1171875,-1.5838623046875,-2.333333333333334,0,0,0,1,0,0,0,1,1,0,0,0,0,1,86
87,0.0,123,126,3,2,3,1,3,0,0,0,0.7168100000000001,0,0,20725.0,20725.0,20726.0,20730.0,20731.0,102,0.03125,0.796142578125,-0.33333333333333304,0.5,1.3333333333333333,0.5,-0.03125,-0.796142578125,-0.33333333333333304,0,0,0,0,0,1,0,1,0,0,1,0,1,0,87
88,0.0,126,129,2,1,3,1,0,0,1,2,1.4453,0,0,20735.0,20736.0,20737.0,20740.0,20741.0,102,0.4218750000000018,0.5794754028320312,-0.375,0.5,1.3333333333333333,1.3333333333333333,-0.4218750000000018,-0.5794754028320312,-0.375,0,0,0,0,0,1,0,1,0,0,1,0,1,0,88
89,0.0,129,132,1,0,3,1,1,0,1,2,2.0256,0,0,20745.0,20745.0,20747.0,20749.0,20750.0,102,0.0006510416666678509,0.187957763671875,-0.5,0.5,1.3333333333333333,1.409090909090909,-0.0006510416666678509,-0.187957763671875,-0.5,0,0,0,0,0,1,0,1,0,0,1,0,1,0,89
90,1.0,132,132,0,1,4,1,2,0,1,2,0.5518,0,0,20754.0,20755.0,20755.0,20759.0,20760.0,102,-1.833333333333334,-1.7952880859375,-1.8333333333333333,1.5,2.333333333333333,2.5,-1.833333333333334,-1.7952880859375,-1.8333333333333333,0,1,0,0,0,0,0,0,0,0,0,1,0,1,90
91,1.0,132,132,1,2,1,1,3,0,1,2,0.40815999999999997,0,0,20765.0,20765.0,20765.0,20770.0,20771.0,102,-2.333333333333333,-1.252685546875,-2.3333333333333335,-1.5,-0.6666666666666667,-0.38888888888888884,-2.333333333333333,-1.252685546875,-2.3333333333333335,0,0,0,1,0,0,0,1,1,0,0,0,0,1,91
92,1.0,132,132,2,3,1,2,0,1,0,1,0.42103999999999997,0,0,20774.0,20775.0,20775.0,20777.0,20778.0,102,-2.8604736328125,-2.517425537109375,-4.0,-1.5,-1.1666666666666667,-1.1666666666666667,-2.8604736328125,-2.517425537109375,-4.0,0,0,0,1,0,0,0,1,1,0,0,0,0,1,92
93,1.0,132,132,3,4,2,2,1,1,0,1,0.58015,0,0,20782.0,20783.0,20784.0,20787.0,20788.0,102,-1.81396484375,-1.3565673828125,-3.0,-0.5,-0.6666666666666667,-0.75,-1.81396484375,-1.3565673828125,-3.0,0,0,0,0,1,0,0,1,0,1,0,0,1,0,93
94,1.0,132,132,4,5,2,2,2,1,0,1,0.46041000000000004,0,0,20793.0,20794.0,20794.0,20797.0,20798.0,102,-1.751953125,-1.14208984375,-3.0,-0.5,-0.6666666666666667,-0.875,-1.751953125,-1.14208984375,-3.0,0,0,0,0,1,0,0,1,0,1,0,0,1,0,94
95,0.0,132,136,5,3,4,2,3,1,0,1,0.41048999999999997,0,0,20803.0,20803.0,20804.0,20808.0,20809.0,102,0.33072916666666785,1.2158203125,-1.0,1.5,0.33333333333333326,-0.08333333333333348,-0.33072916666666785,-1.2158203125,-1.0,0,0,0,0,0,0,1,1,0,0,0,1,0,1,95
96,1.0,136,136,3,4,2,1,0,0,1,2,0.7981199999999999,0,0,20811.0,20812.0,20813.0,20817.0,20818.0,102,-0.376953125,-0.21881103515625,-1.0104166666666679,-0.5,0.33333333333333326,0.33333333333333326,-0.376953125,-0.21881103515625,-1.0104166666666679,0,0,0,0,1,0,0,1,0,1,0,0,1,0,96
97,1.0,136,136,4,5,1,1,1,0,1,2,0.47156000000000003,0,0,20821.0,20821.0,20822.0,20824.0,20825.0,102,-1.1803385416666679,-0.919189453125,-1.8333333333333321,-1.5,-0.6666666666666667,-0.590909090909091,-1.1803385416666679,-0.919189453125,-1.8333333333333321,0,0,0,1,0,0,0,1,1,0,0,0,0,1,97
98,0.0,136,139,5,4,3,1,2,0,1,2,0.66467,0,0,20828.0,20828.0,20829.0,20833.0,20834.0,102,0.9752604166666661,1.45947265625,0.4999999999999982,0.5,1.3333333333333333,1.5,-0.9752604166666661,-1.45947265625,-0.4999999999999982,0,0,0,0,0,1,0,1,0,0,1,0,1,0,98
99,1.0,139,139,4,5,2,1,3,0,1,2,0.72948,0,0,20838.0,20839.0,20840.0,20845.0,20846.0,102,-0.5494791666666661,0.279296875,-1.333333333333334,-0.5,0.33333333333333326,0.6111111111111112,-0.5494791666666661,-0.279296875,-1.333333333333334,0,0,0,0,1,0,0,1,0,1,0,0,1,0,99
100,1.0,139,139,5,6,2,2,0,1,1,3,1.2208,0,0,20849.0,20850.0,20851.0,20854.0,20855.0,102,-0.56396484375,-0.377685546875,-0.5104166666666679,-0.5,-0.6666666666666667,-0.25,-0.56396484375,-0.377685546875,-0.5104166666666679,0,0,0,0,1,0,0,1,0,1,0,0,1,0,100
101,0.0,139,143,6,4,4,2,1,1,1,3,0.34948,0,0,20860.0,20860.0,20861.0,20865.0,20866.0,102,2.04541015625,2.63018798828125,2.958333333333332,1.5,0.33333333333333326,0.75,-2.04541015625,-2.63018798828125,-2.958333333333332,1,0,0,0,0,0,0,0,0,0,0,1,0,1,101
102,1.0,143,143,4,5,2,2,2,1,1,3,0.66466,0,0,20869.0,20870.0,20870.0,20874.0,20875.0,102,-1.068359375,-0.7818603515625,-3.0,-0.5,-0.6666666666666667,-0.25,-1.068359375,-0.7818603515625,-3.0,0,0,0,0,1,0,0,1,0,1,0,0,1,0,102
103,0.0,143,147,5,3,4,2,3,1,1,3,0.44848000000000005,0,0,20878.0,20878.0,20879.0,20880.0,20881.0,102,1.2578125,1.61474609375,-1.0,1.5,0.33333333333333326,0.75,-1.2578125,-1.61474609375,-1.0,0,0,0,0,0,0,1,1,0,0,0,1,0,1,103
104,0.0,147,151,3,1,4,2,0,1,0,1,0.5854600000000001,0,0,20883.0,20884.0,20885.0,20886.0,20887.0,102,0.6328125,0.7683639526367188,0.28125,1.5,0.33333333333333326,0.33333333333333326,-0.6328125,-0.7683639526367188,-0.28125,0,0,0,0,0,0,1,1,0,0,0,1,0,1,104
105,1.0,151,151,1,2,4,2,1,1,0,1,1.0647,0,0,20892.0,20892.0,20893.0,20896.0,20897.0,102,-2.96875,-2.3812713623046875,-3.3333333333333335,1.5,0.33333333333333326,0.25,-2.96875,-2.3812713623046875,-3.3333333333333335,0,0,1,0,0,0,0,0,0,0,0,1,0,1,105
106,1.0,151,151,2,3,3,2,2,1,0,1,2.8303,0,0,20900.0,20900.0,20903.0,20907.0,20908.0,102,-1.6848958333333321,-0.69586181640625,-2.0,0.5,-0.16666666666666674,-0.375,-1.6848958333333321,-0.69586181640625,-2.0,0,0,0,0,0,1,0,1,0,0,1,0,1,0,106
107,0.0,151,154,3,1,3,2,3,1,0,1,1.6411,0,0,20911.0,20912.0,20913.0,20918.0,20919.0,102,-1.6848958333333321,-0.594482421875,-2.0,0.5,-0.16666666666666674,-0.5833333333333335,-1.6848958333333321,-0.594482421875,-2.0,0,0,0,0,0,1,0,1,0,0,1,0,1,0,107
108,0.0,154,158,1,0,4,1,0,0,0,0,0.80914,0,0,20922.0,20923.0,20924.0,20928.0,20929.0,102,0.7438964843749964,0.932708740234375,0.46875,1.5,2.333333333333333,1.5,-0.7438964843749964,-0.932708740234375,-0.46875,0,0,0,0,0,0,1,1,0,0,0,1,0,1,108
109,1.0,158,158,0,1,1,1,1,0,0,0,0.30046999999999996,0,0,20932.0,20932.0,20932.0,20935.0,20936.0,102,-1.6832682291666679,-1.6026611328125,-1.791666666666667,-1.5,-0.6666666666666667,-1.5,-1.6832682291666679,-1.6026611328125,-1.791666666666667,0,1,0,0,0,0,0,0,1,0,0,0,0,1,109
110,0.0,158,162,1,0,4,1,2,0,0,0,0.73803,0,0,20940.0,20940.0,20941.0,20944.0,20945.0,102,0.64453125,0.98486328125,0.5,1.5,2.333333333333333,1.5,-0.64453125,-0.98486328125,-0.5,0,0,0,0,0,0,1,1,0,0,0,1,0,1,110
111,1.0,162,162,0,1,2,1,3,0,0,0,0.45869,0,0,20949.0,20949.0,20950.0,20951.0,20952.0,102,-1.8151041666666679,-1.5732421875,-1.6666666666666667,-0.5,0.33333333333333326,-0.5,-1.8151041666666679,-1.5732421875,-1.6666666666666667,0,1,0,0,0,0,0,0,0,1,0,0,1,0,111
112,1.0,162,162,1,2,1,1,0,0,1,2,0.4597,0,0,20955.0,20955.0,20956.0,20957.0,20958.0,102,-2.036783854166668,-1.989013671875,-2.531250000000001,-1.5,-0.6666666666666667,-0.6666666666666667,-2.036783854166668,-1.989013671875,-2.531250000000001,0,0,0,1,0,0,0,1,1,0,0,0,0,1,112
113,1.0,162,162,2,3,2,1,1,0,1,2,0.74943,0,0,20962.0,20963.0,20964.0,20965.0,20966.0,102,-0.5735677083333321,-0.47802734375,-1.3750000000000009,-0.5,0.33333333333333326,0.40909090909090895,-0.5735677083333321,-0.47802734375,-1.3750000000000009,0,0,0,0,1,0,0,1,0,1,0,0,1,0,113
114,1.0,162,162,3,4,1,1,2,0,1,2,0.50353,0,0,20968.0,20969.0,20969.0,20973.0,20974.0,102,-1.3359374999999982,-1.068115234375,-2.333333333333333,-1.5,-0.6666666666666667,-0.5,-1.3359374999999982,-1.068115234375,-2.333333333333333,0,0,0,1,0,0,0,1,1,0,0,0,0,1,114
115,0.0,162,165,4,3,3,1,3,0,1,2,0.6882199999999999,0,0,20977.0,20978.0,20978.0,20981.0,20982.0,102,0.4505208333333339,1.279296875,-0.3333333333333339,0.5,1.3333333333333333,1.6111111111111112,-0.4505208333333339,-1.279296875,-0.3333333333333339,0,0,0,0,0,1,0,1,0,0,1,0,1,0,115
116,1.0,165,165,3,4,2,2,0,1,1,3,0.48981,0,0,20985.0,20986.0,20986.0,20988.0,20989.0,102,-1.178548177083334,-1.1503143310546875,-1.71875,-0.5,-0.6666666666666667,-0.25,-1.178548177083334,-1.1503143310546875,-1.71875,0,0,0,0,1,0,0,1,0,1,0,0,1,0,116
117,0.0,165,169,4,2,4,2,1,1,1,3,0.6935899999999999,0,0,20992.0,20993.0,20994.0,20997.0,20998.0,102,1.142903645833334,1.199371337890625,0.375,1.5,0.33333333333333326,0.75,-1.142903645833334,-1.199371337890625,-0.375,0,0,0,0,0,0,1,1,0,0,0,1,0,1,117
118,1.0,169,169,2,3,3,2,2,1,1,3,1.6285,0,0,21000.0,21001.0,21002.0,21004.0,21005.0,102,-0.4960937500000018,-0.3719482421875,-2.0,0.5,-0.16666666666666674,0.25,-0.4960937500000018,-0.3719482421875,-2.0,0,0,0,0,0,1,0,1,0,0,1,0,1,0,118
119,1.0,169,169,3,4,3,2,3,1,1,3,0.66903,0,0,21008.0,21009.0,21009.0,21010.0,21011.0,102,-0.3281250000000018,-0.16259765625,-2.0,0.5,-0.16666666666666674,0.25,-0.3281250000000018,-0.16259765625,-2.0,0,0,0,0,0,1,0,1,0,0,1,0,1,0,119
120,0.0,169,173,4,2,4,2,0,1,0,1,0.38042,0,0,21014.0,21014.0,21015.0,21019.0,21020.0,102,0.90625,1.1374969482421875,0.8958333333333321,1.5,0.33333333333333326,0.33333333333333326,-0.90625,-1.1374969482421875,-0.8958333333333321,0,0,0,0,0,0,1,1,0,0,0,1,0,1,120
121,1.0,173,173,2,3,1,2,1,1,0,1,0.46975,0,0,21022.0,21023.0,21023.0,21027.0,21028.0,102,-3.0312500000000018,-2.508087158203125,-4.0,-1.5,-1.1666666666666667,-1.25,-3.0312500000000018,-2.508087158203125,-4.0,0,0,0,1,0,0,0,1,1,0,0,0,0,1,121
122,1.0,173,173,3,4,1,2,2,1,0,1,0.40481999999999996,0,0,21032.0,21033.0,21033.0,21038.0,21039.0,102,-3.0312500000000018,-2.3441162109375,-4.0,-1.5,-1.1666666666666667,-1.375,-3.0312500000000018,-2.3441162109375,-4.0,0,0,0,1,0,0,0,1,1,0,0,0,0,1,122
123,1.0,173,173,4,5,3,2,3,1,0,1,1.6783,0,0,21042.0,21042.0,21044.0,21048.0,21049.0,102,-1.0312500000000018,-0.12548828125,-2.0,0.5,-0.16666666666666674,-0.5833333333333335,-1.0312500000000018,-0.12548828125,-2.0,0,0,0,0,0,1,0,1,0,0,1,0,1,0,123
124,0.0,173,176,5,4,3,1,0,0,0,0,0.40312,0,0,21052.0,21053.0,21053.0,21057.0,21058.0,102,1.0183919270833321,1.2171783447265625,0.7916666666666679,0.5,1.3333333333333333,0.5,-1.0183919270833321,-1.2171783447265625,-0.7916666666666679,0,0,0,0,0,1,0,1,0,0,1,0,1,0,124
125,0.0,176,180,4,3,4,1,1,0,0,0,0.7035899999999999,0,0,21063.0,21063.0,21064.0,21068.0,21069.0,102,1.5462239583333357,1.934356689453125,1.1666666666666679,1.5,2.333333333333333,1.5,-1.5462239583333357,-1.934356689453125,-1.1666666666666679,0,0,0,0,0,0,1,1,0,0,0,1,0,1,125
126,0.0,180,183,3,2,3,1,2,0,0,0,0.7266199999999999,0,0,21072.0,21073.0,21074.0,21078.0,21079.0,102,0.16145833333333215,0.7384033203125,-0.33333333333333215,0.5,1.3333333333333333,0.5,-0.16145833333333215,-0.7384033203125,-0.33333333333333215,0,0,0,0,0,1,0,1,0,0,1,0,1,0,126
127,0.0,183,187,2,1,4,1,3,0,0,0,0.67366,0,0,21083.0,21084.0,21085.0,21090.0,21091.0,102,0.859375,1.4697265625,0.666666666666667,1.5,2.333333333333333,1.5,-0.859375,-1.4697265625,-0.666666666666667,0,0,0,0,0,0,1,1,0,0,0,1,0,1,127
128,1.0,187,187,1,2,2,1,0,0,1,2,0.52665,0,0,21095.0,21095.0,21096.0,21097.0,21098.0,102,-1.0367838541666679,-0.989013671875,-1.5312500000000009,-0.5,0.33333333333333326,0.33333333333333326,-1.0367838541666679,-0.989013671875,-1.5312500000000009,0,0,0,0,1,0,0,1,0,1,0,0,1,0,128
129,1.0,187,187,2,3,2,1,1,0,1,2,0.69482,0,0,21101.0,21102.0,21103.0,21107.0,21108.0,102,-0.5735677083333321,-0.47802734375,-1.3750000000000009,-0.5,0.33333333333333326,0.40909090909090895,-0.5735677083333321,-0.47802734375,-1.3750000000000009,0,0,0,0,1,0,0,1,0,1,0,0,1,0,129
130,1.0,187,187,3,4,2,1,2,0,1,2,1.4145,0,0,21112.0,21113.0,21114.0,21117.0,21119.0,102,-0.3359374999999982,-0.068115234375,-1.333333333333333,-0.5,0.33333333333333326,0.5,-0.3359374999999982,-0.068115234375,-1.333333333333333,0,0,0,0,1,0,0,1,0,1,0,0,1,0,130
131,1.0,187,187,4,5,2,1,3,0,1,2,0.79519,0,0,21121.0,21121.0,21122.0,21127.0,21128.0,102,-0.5494791666666661,0.279296875,-1.333333333333334,-0.5,0.33333333333333326,0.6111111111111112,-0.5494791666666661,-0.279296875,-1.333333333333334,0,0,0,0,1,0,0,1,0,1,0,0,1,0,131
132,0.0,187,191,5,3,4,2,0,1,1,3,0.39364,0,0,21133.0,21134.0,21134.0,21137.0,21138.0,102,1.43603515625,1.622314453125,1.4895833333333321,1.5,0.33333333333333326,0.75,-1.43603515625,-1.622314453125,-1.4895833333333321,0,0,0,0,0,0,1,1,0,0,0,1,0,1,132
133,0.0,191,195,3,1,4,2,1,1,1,3,0.5891,0,0,21141.0,21141.0,21142.0,21145.0,21146.0,102,0.69873046875,0.85906982421875,-1.0,1.5,0.33333333333333326,0.75,-0.69873046875,-0.85906982421875,-1.0,0,0,0,0,0,0,1,1,0,0,0,1,0,1,133
134,1.0,195,195,1,2,1,2,2,1,1,3,0.36227,0,0,21149.0,21149.0,21149.0,21154.0,21155.0,102,-2.175130208333334,-2.4366455078125,-3.333333333333333,-1.5,-1.1666666666666667,-0.75,-2.175130208333334,-2.4366455078125,-3.333333333333333,0,0,1,0,0,0,0,0,1,0,0,0,0,1,134
135,1.0,195,195,2,3,2,2,3,1,1,3,0.45811,0,0,21159.0,21160.0,21160.0,21162.0,21163.0,102,-1.7890625,-1.35693359375,-3.0,-0.5,-0.6666666666666667,-0.25,-1.7890625,-1.35693359375,-3.0,0,0,0,0,1,0,0,1,0,1,0,0,1,0,135
136,1.0,195,195,3,4,1,2,0,1,0,1,0.61426,0,0,21166.0,21167.0,21168.0,21171.0,21172.0,102,-2.3671875,-2.2316360473632812,-2.718750000000001,-1.5,-1.1666666666666667,-1.1666666666666667,-2.3671875,-2.2316360473632812,-2.718750000000001,0,0,0,1,0,0,0,1,1,0,0,0,0,1,136
137,0.0,195,199,4,2,4,2,1,1,0,1,0.44267,0,0,21176.0,21176.0,21177.0,21182.0,21183.0,102,0.84375,1.0367279052734375,0.375,1.5,0.33333333333333326,0.25,-0.84375,-1.0367279052734375,-0.375,0,0,0,0,0,0,1,1,0,0,0,1,0,1,137
138,0.0,199,203,2,0,4,2,2,1,0,1,0.67581,0,0,21186.0,21186.0,21187.0,21190.0,21191.0,102,-0.6848958333333321,0.30413818359375,-1.0,1.5,0.33333333333333326,0.125,-0.6848958333333321,-0.30413818359375,-1.0,0,0,0,0,0,0,1,1,0,0,0,1,0,1,138
139,1.0,203,203,0,1,2,2,3,1,0,1,0.51969,0,0,21194.0,21195.0,21195.0,21200.0,21201.0,102,-1.8151041666666679,-1.5732421875,-1.6666666666666667,-0.5,-0.6666666666666667,-1.0833333333333335,-1.8151041666666679,-1.5732421875,-1.6666666666666667,0,0,1,0,0,0,0,0,0,1,0,0,1,0,139
140,1.0,203,203,1,2,2,1,0,0,0,0,0.63535,0,0,21203.0,21203.0,21204.0,21208.0,21209.0,102,-1.2561035156250036,-1.067291259765625,-1.5312500000000009,-0.5,0.33333333333333326,-0.5,-1.2561035156250036,-1.067291259765625,-1.5312500000000009,0,0,0,0,1,0,0,1,0,1,0,0,1,0,140
141,1.0,203,203,2,3,1,1,1,0,0,0,0.41473000000000004,0,0,21213.0,21213.0,21214.0,21217.0,21218.0,102,-2.0081380208333357,-1.63458251953125,-2.375000000000001,-1.5,-0.6666666666666667,-1.5,-2.0081380208333357,-1.63458251953125,-2.375000000000001,0,0,0,1,0,0,0,1,1,0,0,0,0,1,141
142,1.0,203,203,3,4,1,1,2,0,0,0,1.0343,0,0,21221.0,21222.0,21223.0,21225.0,21226.0,102,-1.8385416666666679,-1.2615966796875,-2.333333333333333,-1.5,-0.6666666666666667,-1.5,-1.8385416666666679,-1.2615966796875,-2.333333333333333,0,0,0,1,0,0,0,1,1,0,0,0,0,1,142
143,0.0,203,206,4,3,3,1,3,0,0,0,0.39427,0,0,21230.0,21230.0,21230.0,21234.0,21235.0,102,0.3932291666666661,1.01416015625,-0.3333333333333339,0.5,1.3333333333333333,0.5,-0.3932291666666661,-1.01416015625,-0.3333333333333339,0,0,0,0,0,1,0,1,0,0,1,0,1,0,143
144,1.0,206,206,3,4,1,1,0,0,1,2,0.44723999999999997,0,0,21239.0,21239.0,21240.0,21241.0,21242.0,102,-1.376953125,-1.21881103515625,-2.010416666666668,-1.5,-0.6666666666666667,-0.6666666666666667,-1.376953125,-1.21881103515625,-2.010416666666668,0,0,0,1,0,0,0,1,1,0,0,0,0,1,144
145,0.0,206,210,4,3,4,1,1,0,1,2,0.35005,0,0,21244.0,21245.0,21245.0,21249.0,21250.0,102,1.8196614583333321,2.080810546875,1.1666666666666679,1.5,2.333333333333333,2.409090909090909,-1.8196614583333321,-2.080810546875,-1.1666666666666679,0,0,0,0,0,0,1,1,0,0,0,1,0,1,145
146,0.0,210,214,3,2,4,1,2,0,1,2,0.395,0,0,21253.0,21253.0,21254.0,21257.0,21258.0,102,1.6640625000000018,1.931884765625,0.6666666666666679,1.5,2.333333333333333,2.5,-1.6640625000000018,-1.931884765625,-0.6666666666666679,0,0,0,0,0,0,1,1,0,0,0,1,0,1,146
147,1.0,214,214,2,3,1,1,3,0,1,2,0.47376999999999997,0,0,21263.0,21263.0,21264.0,21268.0,21269.0,102,-1.122395833333334,-1.27587890625,-2.333333333333333,-1.5,-0.6666666666666667,-0.38888888888888884,-1.122395833333334,-1.27587890625,-2.333333333333333,0,0,0,1,0,0,0,1,1,0,0,0,0,1,147
148,1.0,214,214,3,4,2,2,0,1,1,3,0.5071899999999999,0,0,21273.0,21273.0,21274.0,21278.0,21279.0,102,-1.178548177083334,-1.1503143310546875,-1.71875,-0.5,-0.6666666666666667,-0.25,-1.178548177083334,-1.1503143310546875,-1.71875,0,0,0,0,1,0,0,1,0,1,0,0,1,0,148
149,0.0,214,217,4,2,3,2,1,1,1,3,0.662,0,0,21282.0,21282.0,21283.0,21288.0,21289.0,102,0.14290364583333393,0.199371337890625,-0.625,0.5,-0.16666666666666674,0.25,-0.14290364583333393,-0.199371337890625,-0.625,0,0,0,0,0,1,0,1,0,0,1,0,1,0,149
150,0.0,217,221,2,0,4,2,2,1,1,3,2.3765,0,0,21291.0,21292.0,21294.0,21298.0,21299.0,102,0.5039062499999982,0.6280517578125,-1.0,1.5,0.33333333333333326,0.75,-0.5039062499999982,-0.6280517578125,-1.0,0,0,0,0,0,0,1,1,0,0,0,1,0,1,150
151,1.0,221,221,0,1,3,2,3,1,1,3,0.35076999999999997,0,0,21302.0,21302.0,21303.0,21306.0,21307.0,102,-1.666666666666667,-1.0810546875,-1.6666666666666667,0.5,-0.16666666666666674,0.25,-1.666666666666667,-1.0810546875,-1.6666666666666667,0,0,1,0,0,0,0,0,0,0,1,0,1,0,151
152,1.0,221,221,1,2,1,2,0,1,1,3,0.32187,0,0,21309.0,21309.0,21310.0,21314.0,21315.0,102,-3.071858723958332,-2.2638778686523438,-3.333333333333334,-1.5,-1.1666666666666667,-0.75,-3.071858723958332,-2.2638778686523438,-3.333333333333334,0,0,1,0,0,0,0,0,1,0,0,0,0,1,152
153,1.0,221,221,2,3,1,2,1,1,1,3,0.36835999999999997,0,0,21319.0,21319.0,21320.0,21323.0,21324.0,102,-2.4404296875,-2.371856689453125,-4.0,-1.5,-1.1666666666666667,-0.75,-2.4404296875,-2.371856689453125,-4.0,0,0,0,1,0,0,0,1,1,0,0,0,0,1,153
154,0.0,221,225,3,1,4,2,2,1,1,3,0.59741,0,0,21328.0,21329.0,21329.0,21330.0,21331.0,102,0.74609375,0.8375244140625,-1.0,1.5,0.33333333333333326,0.75,-0.74609375,-0.8375244140625,-1.0,0,0,0,0,0,0,1,1,0,0,0,1,0,1,154
155,1.0,225,225,1,2,3,2,3,1,1,3,0.34447,0,0,21335.0,21336.0,21336.0,21338.0,21339.0,102,-3.333333333333333,-2.252685546875,-3.3333333333333335,0.5,-0.16666666666666674,0.25,-3.333333333333333,-2.252685546875,-3.3333333333333335,0,0,1,0,0,0,0,0,0,0,1,0,1,0,155
